t,wx,wy,wz,ax,ay,az
0.000000,0.089334,0.018619,0.066709,-0.771362,-0.056070,9.866137
0.005000,0.092861,0.021776,0.062665,-0.814028,-0.055873,9.856384
0.010000,0.081964,0.018198,0.061026,-0.799585,-0.050677,9.845509
0.015000,0.090163,0.021902,0.064366,-0.738171,-0.051479,9.865398
0.020000,0.091627,0.018975,0.062510,-0.808359,-0.042430,9.861311
0.025000,0.085875,0.017985,0.064251,-0.766021,-0.019433,9.865219
0.030000,0.086929,0.018143,0.067069,-0.738977,-0.060819,9.899828
0.035000,0.092914,0.020794,0.065498,-0.794728,0.023518,9.913070
0.040000,0.094266,0.022314,0.065766,-0.823085,-0.017532,9.873807
0.045000,0.084979,0.019473,0.065972,-0.767474,-0.050097,9.834113
0.050000,0.087517,0.014696,0.069889,-0.804749,-0.001881,9.846057
0.055000,0.093558,0.022085,0.066559,-0.857489,-0.007366,9.874174
0.060000,0.091800,0.016188,0.070114,-0.832504,-0.025950,9.881564
0.065000,0.088915,0.023967,0.065202,-0.813390,-0.014608,9.820627
0.070000,0.084913,0.019768,0.066369,-0.757055,-0.023098,9.903883
0.075000,0.087862,0.022518,0.063316,-0.819450,0.009855,9.884001
0.080000,0.089184,0.015955,0.060580,-0.840921,0.020263,9.882596
0.085000,0.088183,0.014406,0.067212,-0.838772,-0.013390,9.871382
0.090000,0.081900,0.018705,0.062837,-0.798562,0.008550,9.858661
0.095000,0.090707,0.015188,0.068834,-0.781533,0.038952,9.887390
0.100000,0.090959,0.019912,0.064787,-0.847590,0.012406,9.829204
0.105000,0.084300,0.018071,0.062844,-0.837147,-0.012016,9.860186
0.110000,0.089615,0.021179,0.064498,-0.776460,0.064158,9.886483
0.115000,0.081412,0.020814,0.065548,-0.796459,0.036041,9.863305
0.120000,0.089435,0.015967,0.058814,-0.813893,0.003606,9.884071
0.125000,0.087578,0.017210,0.061959,-0.827392,0.030185,9.806948
0.130000,0.089313,0.016557,0.060941,-0.885464,0.048734,9.842424
0.135000,0.086786,0.016082,0.069937,-0.816450,0.038752,9.806582
0.140000,0.093283,0.019459,0.067678,-0.814960,0.066462,9.862164
0.145000,0.090144,0.016165,0.060046,-0.786954,-0.016278,9.843679
0.150000,0.087654,0.013408,0.066297,-0.825255,0.031472,9.866314
0.155000,0.086799,0.020618,0.065502,-0.834895,-0.010945,9.811326
0.160000,0.091450,0.016214,0.063588,-0.772784,0.011708,9.832829
0.165000,0.086731,0.018039,0.062437,-0.841895,0.004836,9.872119
0.170000,0.090526,0.014765,0.064908,-0.863678,0.041637,9.891417
0.175000,0.088473,0.023040,0.062047,-0.808892,0.052726,9.866892
0.180000,0.088001,0.014339,0.061796,-0.735717,0.059070,9.789256
0.185000,0.086032,0.017971,0.062890,-0.788277,0.094259,9.845024
0.190000,0.086516,0.012836,0.062280,-0.874672,0.103114,9.897153
0.195000,0.084118,0.012219,0.059065,-0.860777,-0.023415,9.815001
0.200000,0.091730,0.014640,0.066926,-0.847908,0.125387,9.855083
0.205000,0.086645,0.023248,0.063379,-0.871250,0.081414,9.847778
0.210000,0.090941,0.012738,0.066758,-0.810400,0.058115,9.853676
0.215000,0.085199,0.022454,0.062222,-0.850938,0.048956,9.838231
0.220000,0.087623,0.017632,0.062494,-0.844279,0.041221,9.823628
0.225000,0.095855,0.018365,0.061973,-0.880182,0.057231,9.847635
0.230000,0.087639,0.012921,0.060448,-0.798739,0.102830,9.836883
0.235000,0.086819,0.013478,0.055491,-0.839286,0.059941,9.817874
0.240000,0.085505,0.017175,0.060779,-0.887124,0.114030,9.870420
0.245000,0.084493,0.016578,0.063407,-0.836393,0.059780,9.872609
0.250000,0.090922,0.016713,0.065949,-0.959931,0.108200,9.846693
0.255000,0.086813,0.012822,0.064432,-0.835725,0.095237,9.833389
0.260000,0.090885,0.011309,0.067348,-0.844106,0.081789,9.838422
0.265000,0.084375,0.016562,0.065293,-0.867430,0.075618,9.856006
0.270000,0.089947,0.014106,0.065496,-0.863319,0.113474,9.838048
0.275000,0.087895,0.009830,0.066165,-0.860243,0.124966,9.836409
0.280000,0.087911,0.011052,0.067792,-0.905753,0.085789,9.853520
0.285000,0.091274,0.015015,0.063473,-0.898697,0.113984,9.845685
0.290000,0.091892,0.015957,0.059622,-0.796433,0.110626,9.819728
0.295000,0.091179,0.013852,0.063099,-0.851961,0.150574,9.875743
0.300000,0.082562,0.019907,0.067034,-0.871183,0.103416,9.816703
0.305000,0.086990,0.011878,0.061892,-0.836747,0.141658,9.833766
0.310000,0.088754,0.017834,0.060895,-0.880457,0.161743,9.867001
0.315000,0.087162,0.017129,0.060907,-0.908000,0.110209,9.848939
0.320000,0.084023,0.012090,0.061239,-0.883502,0.108798,9.856116
0.325000,0.088724,0.012020,0.063535,-0.883579,0.157614,9.847593
0.330000,0.091049,0.010084,0.065237,-0.854081,0.133596,9.862256
0.335000,0.081878,0.019636,0.060116,-0.841055,0.113504,9.879105
0.340000,0.084964,0.013664,0.064296,-0.836871,0.140218,9.755391
0.345000,0.083763,0.013649,0.062807,-0.848038,0.183047,9.839802
0.350000,0.081498,0.017159,0.067371,-0.881342,0.218556,9.833596
0.355000,0.082478,0.012448,0.067349,-0.901719,0.216561,9.816995
0.360000,0.088674,0.014457,0.063646,-0.842403,0.115744,9.884445
0.365000,0.085540,0.011105,0.066349,-0.844241,0.186543,9.903530
0.370000,0.088893,0.016491,0.062476,-0.874057,0.183046,9.842840
0.375000,0.086475,0.013827,0.066622,-0.881510,0.158367,9.818349
0.380000,0.082812,0.015974,0.063829,-0.856057,0.132642,9.784880
0.385000,0.082257,0.015804,0.067281,-0.870904,0.150195,9.838928
0.390000,0.084427,0.011237,0.056552,-0.907797,0.171252,9.888171
0.395000,0.085717,0.016382,0.062883,-0.890829,0.062663,9.856404
0.400000,0.086790,0.017378,0.062598,-0.881608,0.161168,9.807043
0.405000,0.082923,0.010959,0.068119,-0.885546,0.161302,9.846412
0.410000,0.085627,0.009873,0.067476,-0.943437,0.181292,9.861934
0.415000,0.080870,0.012892,0.067919,-0.874346,0.139671,9.819961
0.420000,0.088492,0.012610,0.064006,-0.875885,0.214681,9.820378
0.425000,0.083833,0.012051,0.062398,-0.894284,0.234655,9.812423
0.430000,0.090393,0.017167,0.058884,-0.895665,0.208666,9.818456
0.435000,0.082297,0.010723,0.066236,-0.907924,0.255848,9.849807
0.440000,0.084119,0.015689,0.065892,-0.882650,0.193772,9.895352
0.445000,0.086767,0.010637,0.059277,-0.883679,0.172049,9.789278
0.450000,0.083399,0.011998,0.067850,-0.887528,0.233193,9.803805
0.455000,0.084072,0.011432,0.066585,-0.893649,0.235782,9.825280
0.460000,0.085116,0.012210,0.060244,-0.892989,0.204691,9.783108
0.465000,0.086819,0.009785,0.061431,-0.910694,0.221087,9.885292
0.470000,0.083347,0.012194,0.068104,-0.884482,0.251633,9.825583
0.475000,0.086057,0.010508,0.067202,-0.931704,0.198821,9.877765
0.480000,0.083055,0.009510,0.064207,-0.923386,0.264793,9.802052
0.485000,0.083089,0.011533,0.063656,-0.927869,0.201406,9.852113
0.490000,0.080346,0.012336,0.059393,-0.921543,0.231165,9.801610
0.495000,0.085290,0.010246,0.060852,-0.951549,0.185723,9.840530
0.500000,0.079759,0.006112,0.063263,-0.838741,0.243627,9.861710
0.505000,0.083761,0.012460,0.059923,-0.921060,0.245747,9.838109
0.510000,0.082440,0.008018,0.063173,-0.932444,0.167853,9.802635
0.515000,0.084336,0.014591,0.069385,-0.907384,0.269906,9.865533
0.520000,0.080723,0.004731,0.064033,-0.964215,0.236099,9.856361
0.525000,0.078430,0.009825,0.067656,-0.901562,0.263955,9.865143
0.530000,0.087779,0.010087,0.067621,-0.915385,0.234484,9.847209
0.535000,0.080651,0.007817,0.062106,-0.983371,0.256613,9.799674
0.540000,0.082035,0.013790,0.062362,-0.931811,0.296940,9.853801
0.545000,0.085173,0.008278,0.066166,-0.937173,0.238312,9.855123
0.550000,0.080334,0.011548,0.071093,-0.968205,0.238591,9.870664
0.555000,0.081579,0.012634,0.060885,-0.908707,0.259201,9.841095
0.560000,0.082891,0.005393,0.060689,-0.877692,0.275070,9.839898
0.565000,0.081649,0.010026,0.060441,-0.950657,0.307959,9.841070
0.570000,0.084214,0.007043,0.068036,-0.911340,0.285807,9.852817
0.575000,0.079154,0.003165,0.060678,-0.873789,0.312931,9.825772
0.580000,0.080520,0.011775,0.063394,-0.962683,0.314413,9.850319
0.585000,0.073755,0.007628,0.064328,-0.910264,0.283543,9.816755
0.590000,0.080836,0.009355,0.063090,-0.936850,0.319067,9.807253
0.595000,0.080012,0.002279,0.065514,-0.901830,0.300480,9.863006
0.600000,0.082260,0.009302,0.065311,-0.935678,0.322192,9.824843
0.605000,0.076426,0.010726,0.069438,-0.957439,0.286004,9.814562
0.610000,0.079547,0.008217,0.060158,-0.937934,0.247579,9.817903
0.615000,0.077004,0.004804,0.058722,-0.893989,0.309331,9.777250
0.620000,0.078645,0.005871,0.061806,-0.974935,0.319186,9.822723
0.625000,0.081712,0.009364,0.068003,-0.986929,0.351202,9.872488
0.630000,0.081898,0.014836,0.064490,-0.908788,0.279377,9.868280
0.635000,0.080553,0.006234,0.070224,-0.943520,0.304274,9.828156
0.640000,0.077652,0.009082,0.066086,-0.924684,0.235665,9.864139
0.645000,0.078737,0.003741,0.065679,-0.919363,0.277659,9.907898
0.650000,0.076027,0.002092,0.060405,-0.894553,0.306138,9.822389
0.655000,0.079336,0.005402,0.061795,-0.957336,0.335110,9.863990
0.660000,0.076223,0.007810,0.066229,-0.971470,0.301246,9.802061
0.665000,0.075381,0.007299,0.061655,-0.920996,0.317887,9.845408
0.670000,0.078241,0.004989,0.063590,-0.940987,0.300035,9.845653
0.675000,0.081221,0.007269,0.069001,-0.960709,0.339263,9.820420
0.680000,0.079548,0.004205,0.067205,-0.937355,0.361842,9.794526
0.685000,0.077225,0.003917,0.062262,-0.964305,0.324882,9.831818
0.690000,0.078443,0.004829,0.064419,-0.918145,0.303848,9.832190
0.695000,0.078204,0.007800,0.063665,-0.945764,0.303595,9.832642
0.700000,0.075520,0.007842,0.063546,-0.944974,0.308999,9.855931
0.705000,0.080220,0.008780,0.070537,-0.948615,0.374237,9.827932
0.710000,0.079183,0.007191,0.064648,-0.928157,0.331411,9.832703
0.715000,0.079463,0.011238,0.061326,-1.002948,0.328395,9.834001
0.720000,0.078238,0.006171,0.067401,-0.920337,0.343821,9.817046
0.725000,0.076529,0.004724,0.063175,-0.997647,0.333845,9.818215
0.730000,0.076854,0.004930,0.065868,-0.967269,0.336889,9.847049
0.735000,0.076568,0.006241,0.065860,-0.939490,0.359915,9.824727
0.740000,0.079172,0.006018,0.062337,-0.957506,0.318224,9.801603
0.745000,0.071329,0.003350,0.067858,-0.970504,0.380746,9.830177
0.750000,0.074726,0.009304,0.065598,-1.007186,0.390707,9.797867
0.755000,0.076144,0.007192,0.062952,-0.921881,0.384642,9.782635
0.760000,0.075109,0.005933,0.062127,-0.962749,0.388130,9.839276
0.765000,0.073612,0.005509,0.062015,-0.993522,0.332561,9.838213
0.770000,0.076137,0.004900,0.060413,-0.963385,0.337668,9.801644
0.775000,0.075572,0.000632,0.065860,-0.884057,0.384861,9.797981
0.780000,0.075099,0.000014,0.062720,-0.944234,0.391085,9.798148
0.785000,0.076654,0.008048,0.069119,-0.981262,0.349778,9.830566
0.790000,0.066816,0.002883,0.063041,-0.974798,0.330482,9.821400
0.795000,0.073113,0.006647,0.061099,-0.970262,0.373298,9.845628
0.800000,0.067647,0.003250,0.066135,-0.973411,0.336759,9.838233
0.805000,0.076136,0.003359,0.060377,-0.985544,0.375429,9.802003
0.810000,0.069206,0.001760,0.063672,-0.979293,0.384842,9.830614
0.815000,0.077496,0.010577,0.066054,-1.006964,0.309661,9.825105
0.820000,0.074859,0.000377,0.064676,-0.988589,0.403704,9.818009
0.825000,0.075675,-0.001469,0.062546,-0.970781,0.351125,9.884081
0.830000,0.072697,0.007828,0.061869,-0.973958,0.431629,9.836562
0.835000,0.074732,0.004353,0.059765,-0.979476,0.369652,9.833207
0.840000,0.072359,0.003320,0.063633,-0.969606,0.399529,9.807551
0.845000,0.070663,0.001356,0.067081,-0.958011,0.420400,9.868359
0.850000,0.070121,0.004776,0.060643,-0.979980,0.419532,9.875229
0.855000,0.071146,0.002858,0.067339,-1.015354,0.418074,9.817389
0.860000,0.070679,0.003480,0.065657,-0.998726,0.420809,9.831677
0.865000,0.069430,0.007597,0.067143,-0.997860,0.394002,9.849439
0.870000,0.071500,-0.002686,0.067022,-0.972491,0.470996,9.836880
0.875000,0.073389,0.011353,0.063362,-1.001997,0.422838,9.860070
0.880000,0.069149,-0.000099,0.065229,-1.070045,0.385352,9.849703
0.885000,0.070712,-0.002357,0.069659,-1.017117,0.404595,9.814498
0.890000,0.072549,0.001310,0.063641,-0.973747,0.419851,9.828321
0.895000,0.064989,0.003638,0.059673,-1.041137,0.466040,9.786800
0.900000,0.072491,-0.000107,0.061853,-0.962289,0.395294,9.836389
0.905000,0.072919,0.005600,0.062883,-0.946056,0.480496,9.872653
0.910000,0.073359,0.003350,0.072442,-0.911138,0.408003,9.852605
0.915000,0.073230,0.002115,0.064356,-0.964113,0.461241,9.831305
0.920000,0.072266,0.005970,0.064852,-0.963035,0.464938,9.873585
0.925000,0.074749,0.002821,0.064525,-1.016727,0.446097,9.793318
0.930000,0.067817,0.003536,0.063603,-0.966480,0.420623,9.860316
0.935000,0.071141,0.005044,0.065928,-0.976311,0.427165,9.825073
0.940000,0.073013,0.003469,0.060324,-0.951114,0.437185,9.848433
0.945000,0.068255,0.003185,0.061524,-0.978615,0.436735,9.815257
0.950000,0.068466,0.000706,0.058695,-0.956804,0.476592,9.810390
0.955000,0.065843,-0.000879,0.066763,-0.964936,0.440789,9.850441
0.960000,0.066674,-0.000881,0.065348,-0.987174,0.434174,9.748010
0.965000,0.071628,0.001823,0.058698,-0.966876,0.453462,9.831590
0.970000,0.072264,-0.001473,0.066071,-0.964954,0.478774,9.872155
0.975000,0.071219,-0.001044,0.069329,-1.019267,0.444074,9.793994
0.980000,0.068748,0.003782,0.067831,-0.972715,0.441693,9.806173
0.985000,0.067059,0.003289,0.061222,-0.961252,0.461008,9.827797
0.990000,0.073216,-0.001101,0.068930,-1.030033,0.439247,9.775138
0.995000,0.066251,0.001968,0.066162,-0.979103,0.473998,9.787144
1.000000,0.064321,0.001026,0.067996,-0.999781,0.429916,9.776201
1.005000,0.066069,0.004747,0.063334,-1.020541,0.451668,9.807550
1.010000,0.068717,-0.002077,0.061291,-0.995583,0.485983,9.843425
1.015000,0.069379,-0.001576,0.058880,-1.014432,0.482409,9.781762
1.020000,0.068293,-0.002079,0.062223,-0.957420,0.482404,9.862737
1.025000,0.064524,0.002977,0.066701,-1.081378,0.475141,9.867756
1.030000,0.069481,-0.001845,0.063280,-1.031137,0.485916,9.767554
1.035000,0.063906,0.002730,0.063921,-1.003461,0.478481,9.903466
1.040000,0.069862,-0.003060,0.068987,-0.995729,0.505772,9.803472
1.045000,0.063747,0.001566,0.061685,-1.017005,0.512430,9.786071
1.050000,0.062105,0.000689,0.058116,-1.016613,0.476431,9.780437
1.055000,0.062813,0.000945,0.064878,-1.022923,0.505182,9.866238
1.060000,0.062119,-0.000975,0.069935,-0.976701,0.515588,9.814520
1.065000,0.063373,0.002165,0.065971,-0.997061,0.479107,9.767958
1.070000,0.066035,-0.003447,0.063620,-0.975859,0.519540,9.841825
1.075000,0.072132,0.002017,0.061782,-1.021006,0.566648,9.800222
1.080000,0.065033,0.003649,0.069171,-0.998558,0.505917,9.770937
1.085000,0.062238,-0.002788,0.064013,-1.007075,0.505074,9.885639
1.090000,0.066153,-0.000873,0.064041,-1.002984,0.539332,9.789990
1.095000,0.064180,-0.005193,0.064302,-0.994701,0.531788,9.855527
1.100000,0.066341,0.002854,0.068811,-0.989252,0.517194,9.761380
1.105000,0.065108,-0.002135,0.058986,-1.012089,0.536529,9.782177
1.110000,0.067820,-0.000802,0.063371,-1.003847,0.534507,9.776271
1.115000,0.069857,-0.004774,0.061766,-0.963377,0.535106,9.858848
1.120000,0.066666,-0.001312,0.060239,-1.014604,0.519143,9.818445
1.125000,0.057162,0.000585,0.069267,-0.956908,0.484432,9.831915
1.130000,0.056732,0.002414,0.058259,-0.988922,0.551613,9.857451
1.135000,0.063934,-0.007040,0.063781,-1.009689,0.529546,9.848221
1.140000,0.064679,0.003494,0.066074,-1.013699,0.569146,9.809031
1.145000,0.063328,-0.002436,0.057217,-0.994120,0.530671,9.812054
1.150000,0.061847,-0.006939,0.064350,-0.957722,0.518403,9.802561
1.155000,0.060236,0.002858,0.060043,-0.977840,0.528788,9.875732
1.160000,0.065780,-0.003566,0.059490,-0.960673,0.570902,9.784840
1.165000,0.063869,-0.005811,0.061792,-1.052209,0.556853,9.826003
1.170000,0.062903,0.000841,0.066133,-0.986755,0.553041,9.785815
1.175000,0.061102,-0.007243,0.061433,-1.007404,0.564108,9.879383
1.180000,0.057734,-0.003213,0.063926,-0.989183,0.551402,9.828394
1.185000,0.057872,-0.002657,0.066823,-1.020748,0.594945,9.810360
1.190000,0.058656,-0.003060,0.063379,-1.046701,0.536475,9.865166
1.195000,0.066348,-0.005758,0.066874,-1.002044,0.547428,9.855204
1.200000,0.062679,-0.003702,0.061379,-1.040069,0.538633,9.826780
1.205000,0.061414,-0.001927,0.067110,-1.078765,0.569290,9.785538
1.210000,0.063027,-0.003371,0.066070,-1.023218,0.552290,9.760836
1.215000,0.062751,-0.005482,0.056418,-0.975458,0.595728,9.790461
1.220000,0.062883,-0.006847,0.057392,-1.018346,0.556813,9.820644
1.225000,0.059335,-0.003817,0.064848,-1.014391,0.530584,9.808557
1.230000,0.057747,-0.005724,0.060897,-1.024483,0.552678,9.825709
1.235000,0.058388,-0.005474,0.065816,-0.984061,0.572191,9.763825
1.240000,0.056991,-0.002915,0.065765,-0.988385,0.562786,9.790613
1.245000,0.061801,-0.009219,0.067184,-1.009549,0.510734,9.804232
1.250000,0.061520,-0.007014,0.060602,-1.017994,0.531920,9.778498
1.255000,0.058997,-0.002963,0.062585,-0.993889,0.546390,9.812924
1.260000,0.057829,-0.000987,0.065770,-1.039833,0.575005,9.809181
1.265000,0.055834,-0.008095,0.064176,-1.011920,0.548985,9.773985
1.270000,0.051885,-0.005300,0.064797,-0.944873,0.557201,9.846265
1.275000,0.060365,-0.005976,0.064500,-1.023507,0.617316,9.770273
1.280000,0.056432,-0.001750,0.063954,-1.027979,0.572539,9.831241
1.285000,0.058025,-0.005166,0.066535,-0.982714,0.533827,9.803971
1.290000,0.058703,-0.004654,0.064996,-0.991139,0.597070,9.789504
1.295000,0.052183,-0.009690,0.069876,-1.043169,0.562930,9.809590
1.300000,0.058727,-0.011553,0.064189,-0.975321,0.604866,9.827343
1.305000,0.054620,-0.001174,0.059299,-0.982535,0.588107,9.832705
1.310000,0.055969,-0.005941,0.067115,-1.046761,0.536898,9.819760
1.315000,0.055096,-0.006175,0.069101,-1.029750,0.598257,9.826332
1.320000,0.061806,-0.010982,0.062700,-1.026269,0.616748,9.790115
1.325000,0.059447,-0.002090,0.066943,-0.999633,0.531848,9.820093
1.330000,0.049948,-0.008082,0.064963,-1.022204,0.608451,9.810669
1.335000,0.049360,-0.010283,0.060540,-1.022608,0.618737,9.829634
1.340000,0.054789,-0.011069,0.071477,-1.014135,0.655190,9.788358
1.345000,0.051832,0.000477,0.061153,-1.000893,0.573900,9.789898
1.350000,0.059782,-0.010444,0.067078,-0.980486,0.555046,9.757304
1.355000,0.047720,-0.009940,0.065062,-1.003707,0.581071,9.810984
1.360000,0.055747,-0.005346,0.065538,-1.032429,0.611403,9.819502
1.365000,0.050344,-0.009491,0.068096,-0.958703,0.573508,9.751648
1.370000,0.054112,-0.010579,0.066616,-1.025482,0.657600,9.817283
1.375000,0.054819,-0.011624,0.055969,-1.010276,0.599874,9.835451
1.380000,0.050209,-0.011964,0.059634,-0.997869,0.614617,9.787497
1.385000,0.050047,-0.010383,0.058758,-1.008612,0.619972,9.806999
1.390000,0.047123,-0.008903,0.068545,-0.950804,0.603936,9.789961
1.395000,0.045193,-0.013056,0.064194,-1.008039,0.604825,9.805671
1.400000,0.046278,-0.013257,0.064911,-1.039654,0.637523,9.769726
1.405000,0.055727,-0.010637,0.065147,-1.008321,0.589299,9.753023
1.410000,0.048976,-0.004180,0.060643,-1.070373,0.594285,9.800990
1.415000,0.046301,-0.011115,0.063051,-1.027584,0.606956,9.834498
1.420000,0.051097,-0.007942,0.069543,-0.982421,0.515898,9.802341
1.425000,0.044962,-0.011145,0.066825,-1.021393,0.591632,9.852684
1.430000,0.044936,-0.009469,0.066167,-1.014705,0.570776,9.812437
1.435000,0.051624,-0.008226,0.065482,-1.006271,0.610909,9.775818
1.440000,0.048029,-0.008115,0.055194,-0.992839,0.618146,9.780472
1.445000,0.046471,-0.010129,0.065787,-1.026830,0.644192,9.825335
1.450000,0.046103,-0.011041,0.065238,-0.993807,0.630731,9.809958
1.455000,0.048664,-0.009813,0.067030,-1.045289,0.629554,9.757260
1.460000,0.049321,-0.009079,0.064572,-1.079717,0.659598,9.839732
1.465000,0.047796,-0.008582,0.061764,-1.000403,0.660516,9.777386
1.470000,0.055549,-0.011379,0.067073,-1.040581,0.626532,9.774460
1.475000,0.045245,-0.010864,0.062633,-1.023061,0.645194,9.774317
1.480000,0.043384,-0.010147,0.062917,-1.045946,0.620962,9.795651
1.485000,0.047730,-0.010518,0.064015,-1.017890,0.648773,9.851959
1.490000,0.045992,-0.013599,0.060094,-1.082855,0.583861,9.786921
1.495000,0.046062,-0.016261,0.068926,-0.983939,0.657548,9.797060
1.500000,0.046700,-0.013572,0.069295,-1.052229,0.605827,9.855107
1.505000,0.053185,-0.011115,0.063412,-1.091040,0.673581,9.821609
1.510000,0.039811,-0.008336,0.066506,-1.026440,0.606554,9.834227
1.515000,0.045912,-0.009600,0.068353,-0.979988,0.647115,9.829844
1.520000,0.041122,-0.014517,0.067138,-0.996338,0.640845,9.837458
1.525000,0.043040,-0.009587,0.061725,-1.013848,0.654168,9.791906
1.530000,0.050306,-0.007990,0.068818,-1.022013,0.585598,9.791220
1.535000,0.045848,-0.012339,0.066875,-1.011118,0.610542,9.840171
1.540000,0.047992,-0.013809,0.066256,-1.010882,0.637617,9.808989
1.545000,0.039923,-0.007495,0.061599,-1.041641,0.649825,9.817478
1.550000,0.041037,-0.013806,0.064263,-1.028542,0.650468,9.777126
1.555000,0.044258,-0.007352,0.065352,-1.042040,0.610305,9.813334
1.560000,0.041038,-0.008351,0.059237,-0.966148,0.572159,9.810768
1.565000,0.039405,-0.009704,0.062445,-1.049229,0.623611,9.799643
1.570000,0.036590,-0.010912,0.057599,-0.979861,0.624801,9.840539
1.575000,0.040335,-0.014765,0.066741,-1.032584,0.589155,9.809314
1.580000,0.037747,-0.012535,0.068933,-0.986084,0.636508,9.806933
1.585000,0.040668,-0.014520,0.065870,-1.019598,0.625860,9.819987
1.590000,0.035304,-0.006848,0.066705,-1.056567,0.641610,9.777994
1.595000,0.039481,-0.015513,0.068100,-1.072262,0.628363,9.762378
1.600000,0.040777,-0.013892,0.060614,-0.971329,0.686723,9.794908
1.605000,0.042143,-0.013496,0.065574,-0.968433,0.632575,9.865585
1.610000,0.039451,-0.013440,0.070521,-1.006010,0.580479,9.818551
1.615000,0.036208,-0.018258,0.062035,-1.004348,0.608829,9.769757
1.620000,0.038652,-0.012167,0.062784,-1.053183,0.577830,9.788499
1.625000,0.042062,-0.010485,0.067252,-1.019102,0.647661,9.849807
1.630000,0.036660,-0.012510,0.059279,-0.993222,0.631008,9.777099
1.635000,0.041321,-0.017046,0.062300,-0.967428,0.613906,9.792082
1.640000,0.036689,-0.011469,0.059404,-0.975857,0.638722,9.802251
1.645000,0.035784,-0.014370,0.069332,-1.006814,0.618772,9.801333
1.650000,0.039813,-0.013788,0.064159,-0.994888,0.658294,9.779421
1.655000,0.032200,-0.012653,0.070513,-1.037467,0.643934,9.852374
1.660000,0.042898,-0.014070,0.068700,-0.990140,0.632181,9.751188
1.665000,0.034685,-0.013268,0.066218,-1.027535,0.623805,9.763745
1.670000,0.032107,-0.014853,0.060246,-1.012724,0.626266,9.798973
1.675000,0.043257,-0.014453,0.063949,-1.017268,0.606653,9.851938
1.680000,0.039158,-0.016304,0.065678,-1.032008,0.663397,9.771481
1.685000,0.037150,-0.010315,0.066338,-1.029349,0.680637,9.870294
1.690000,0.038273,-0.014637,0.062603,-0.998358,0.710435,9.751280
1.695000,0.038744,-0.014596,0.069559,-1.015041,0.588468,9.871541
1.700000,0.032066,-0.012749,0.064646,-1.012160,0.658109,9.795434
1.705000,0.035835,-0.014338,0.067444,-1.006986,0.664131,9.851669
1.710000,0.032300,-0.015161,0.066484,-0.979433,0.653241,9.814819
1.715000,0.033702,-0.011761,0.064095,-0.989690,0.652659,9.812780
1.720000,0.030798,-0.015422,0.064980,-1.054504,0.634057,9.798257
1.725000,0.029611,-0.019354,0.069487,-1.040638,0.631114,9.770019
1.730000,0.037609,-0.013059,0.066043,-1.006948,0.642590,9.803380
1.735000,0.031634,-0.013949,0.067175,-0.981827,0.719334,9.833149
1.740000,0.035289,-0.013023,0.060482,-1.008789,0.613002,9.859275
1.745000,0.031635,-0.010826,0.068302,-1.025218,0.609082,9.778262
1.750000,0.035959,-0.017219,0.060684,-1.015107,0.710142,9.860286
1.755000,0.031152,-0.015442,0.066976,-1.052449,0.643848,9.799874
1.760000,0.033511,-0.018007,0.060955,-0.998052,0.641039,9.775229
1.765000,0.028350,-0.017256,0.069510,-1.012712,0.692945,9.744713
1.770000,0.029238,-0.020471,0.064343,-0.984062,0.644797,9.774794
1.775000,0.034324,-0.019094,0.065995,-1.026804,0.677134,9.800656
1.780000,0.033593,-0.015055,0.071851,-1.008941,0.632777,9.777364
1.785000,0.029142,-0.015903,0.063055,-0.960642,0.668452,9.782923
1.790000,0.029271,-0.019054,0.065741,-1.036643,0.701295,9.801582
1.795000,0.029674,-0.014480,0.062971,-1.005588,0.716985,9.824645
1.800000,0.030992,-0.018789,0.062243,-0.952741,0.658786,9.869291
1.805000,0.027784,-0.013705,0.064620,-0.992356,0.700450,9.825640
1.810000,0.031969,-0.022269,0.063864,-0.943167,0.657422,9.821996
1.815000,0.028796,-0.019555,0.060773,-1.038403,0.715108,9.810110
1.820000,0.025444,-0.020513,0.067886,-1.032202,0.646195,9.779030
1.825000,0.024957,-0.012964,0.064853,-1.013064,0.647224,9.833950
1.830000,0.028642,-0.017144,0.065696,-1.013765,0.651141,9.760579
1.835000,0.026706,-0.011641,0.061576,-1.002535,0.675929,9.848498
1.840000,0.035880,-0.019432,0.062673,-0.970476,0.672524,9.872920
1.845000,0.029804,-0.020358,0.064724,-0.989200,0.681420,9.778759
1.850000,0.021578,-0.023273,0.067175,-1.006093,0.611608,9.796313
1.855000,0.021262,-0.019362,0.062738,-1.017834,0.664364,9.818374
1.860000,0.026975,-0.014807,0.072546,-0.975129,0.661436,9.835512
1.865000,0.024336,-0.021270,0.062739,-0.991505,0.704498,9.879736
1.870000,0.030213,-0.016809,0.063298,-0.997559,0.683854,9.809405
1.875000,0.031550,-0.021472,0.063230,-0.988034,0.727949,9.758753
1.880000,0.023145,-0.015259,0.063345,-0.937234,0.643282,9.845369
1.885000,0.025140,-0.017854,0.062284,-1.046759,0.691365,9.797385
1.890000,0.022369,-0.022658,0.062266,-0.957537,0.640579,9.797057
1.895000,0.030746,-0.020749,0.065394,-0.986659,0.659526,9.792756
1.900000,0.028403,-0.018603,0.063532,-1.038798,0.633811,9.782733
1.905000,0.017819,-0.016150,0.065736,-0.980683,0.626099,9.798987
1.910000,0.023287,-0.019555,0.064821,-1.033669,0.701532,9.834921
1.915000,0.023951,-0.016795,0.069073,-0.954038,0.673768,9.804243
1.920000,0.022007,-0.017328,0.063354,-1.022789,0.685597,9.829452
1.925000,0.025076,-0.022659,0.066370,-0.967447,0.654646,9.805794
1.930000,0.021991,-0.015663,0.068180,-1.034640,0.623483,9.833420
1.935000,0.021965,-0.018733,0.066284,-0.963646,0.620387,9.797561
1.940000,0.023076,-0.019737,0.062652,-1.009255,0.651623,9.815418
1.945000,0.024144,-0.021376,0.065046,-1.055767,0.637394,9.869749
1.950000,0.016617,-0.016566,0.064621,-1.051333,0.712975,9.852766
1.955000,0.019969,-0.018167,0.064457,-0.990399,0.674237,9.807399
1.960000,0.022771,-0.019721,0.063965,-0.982532,0.653624,9.818431
1.965000,0.019425,-0.020696,0.070345,-1.010507,0.625329,9.862329
1.970000,0.021511,-0.023049,0.064803,-1.017777,0.697327,9.835994
1.975000,0.022237,-0.020546,0.059411,-1.025442,0.677681,9.735037
1.980000,0.019831,-0.024392,0.067470,-0.995194,0.700861,9.824907
1.985000,0.020127,-0.024345,0.067463,-0.917375,0.617714,9.784160
1.990000,0.024496,-0.019999,0.064701,-0.964746,0.678923,9.795388
1.995000,0.017216,-0.019078,0.066628,-0.955322,0.688471,9.796644
2.000000,0.023510,-0.024523,0.064247,-1.010578,0.626719,9.833840
2.005000,0.015496,-0.023915,0.068444,-0.960574,0.649997,9.776020
2.010000,0.018058,-0.026765,0.062594,-0.997594,0.663769,9.798706
2.015000,0.017652,-0.017934,0.067515,-0.944010,0.695255,9.822425
2.020000,0.014163,-0.026198,0.065581,-0.997065,0.640187,9.827860
2.025000,0.021193,-0.022503,0.065909,-1.000630,0.647422,9.874884
2.030000,0.013467,-0.022891,0.064319,-0.986927,0.699275,9.845594
2.035000,0.016532,-0.019146,0.063370,-0.972364,0.721084,9.798561
2.040000,0.017284,-0.018129,0.063151,-0.980503,0.658055,9.782490
2.045000,0.017597,-0.025266,0.070654,-0.981206,0.660984,9.817335
2.050000,0.016409,-0.023440,0.065867,-0.998458,0.652082,9.832033
2.055000,0.009407,-0.025350,0.065730,-0.970325,0.655114,9.820422
2.060000,0.014483,-0.028642,0.068534,-0.971934,0.637862,9.860699
2.065000,0.017279,-0.025045,0.069041,-0.963175,0.691190,9.798513
2.070000,0.013292,-0.025745,0.064107,-1.048105,0.698566,9.781271
2.075000,0.016386,-0.027280,0.066089,-1.013844,0.665173,9.768812
2.080000,0.012617,-0.021515,0.066389,-0.972298,0.639721,9.751028
2.085000,0.011428,-0.025135,0.070193,-0.959695,0.674660,9.799590
2.090000,0.011635,-0.021789,0.064648,-0.986233,0.722383,9.787714
2.095000,0.012693,-0.024568,0.063818,-1.017813,0.702686,9.774920
2.100000,0.010529,-0.023159,0.062050,-0.979475,0.656474,9.810317
2.105000,0.012547,-0.028261,0.064141,-0.935595,0.698734,9.800124
2.110000,0.015936,-0.026964,0.061705,-1.033972,0.630059,9.831472
2.115000,0.011420,-0.019267,0.068324,-0.983400,0.656370,9.811328
2.120000,0.015108,-0.025513,0.065770,-0.994150,0.701639,9.807464
2.125000,0.009885,-0.029028,0.068720,-0.989146,0.660161,9.805756
2.130000,0.010980,-0.030524,0.063476,-1.003207,0.727208,9.858610
2.135000,0.012568,-0.017224,0.069670,-1.010338,0.622872,9.826375
2.140000,0.010760,-0.024157,0.063371,-0.913924,0.650455,9.852083
2.145000,0.015061,-0.026655,0.067583,-0.920787,0.704283,9.841167
2.150000,0.011716,-0.024771,0.069668,-0.950366,0.663800,9.804572
2.155000,0.006053,-0.025635,0.071463,-0.981643,0.640358,9.811674
2.160000,0.009187,-0.026900,0.067807,-0.956633,0.694592,9.837082
2.165000,0.010099,-0.031639,0.066476,-0.985267,0.690937,9.821383
2.170000,0.006966,-0.027067,0.062288,-0.981360,0.667548,9.854689
2.175000,0.010527,-0.023116,0.068573,-0.973899,0.701162,9.778919
2.180000,0.009052,-0.027229,0.060011,-0.913671,0.597100,9.840298
2.185000,0.013776,-0.026369,0.065569,-1.019650,0.648987,9.863294
2.190000,0.006544,-0.028790,0.058975,-0.923356,0.668274,9.810856
2.195000,0.010953,-0.027566,0.064928,-0.897441,0.628459,9.828777
2.200000,0.008209,-0.025788,0.065956,-0.999591,0.650636,9.812946
2.205000,0.005246,-0.028688,0.062939,-0.983899,0.666436,9.821467
2.210000,0.011933,-0.024485,0.064166,-0.975009,0.648365,9.810028
2.215000,0.006692,-0.020578,0.065503,-0.954090,0.617183,9.775668
2.220000,0.005988,-0.027760,0.066571,-0.916549,0.636984,9.800305
2.225000,0.009044,-0.027922,0.066145,-0.959633,0.708028,9.770507
2.230000,0.003360,-0.024769,0.069460,-0.986533,0.686360,9.807030
2.235000,0.003358,-0.028719,0.067048,-0.940317,0.624081,9.827501
2.240000,0.004105,-0.030513,0.071069,-0.983069,0.652718,9.786539
2.245000,0.003671,-0.026769,0.066485,-0.983939,0.645352,9.832147
2.250000,0.009132,-0.024753,0.069226,-0.933414,0.628228,9.811963
2.255000,0.007113,-0.029316,0.062650,-0.952891,0.592983,9.798507
2.260000,0.000689,-0.028598,0.069958,-0.881170,0.664584,9.793328
2.265000,0.006016,-0.026205,0.064220,-0.923476,0.631543,9.804933
2.270000,0.003709,-0.025516,0.064929,-0.938409,0.590413,9.831254
2.275000,0.001816,-0.029247,0.058463,-0.991694,0.592162,9.840820
2.280000,0.000200,-0.026965,0.068023,-0.963758,0.612926,9.859144
2.285000,0.003466,-0.031588,0.067494,-0.966422,0.656906,9.847788
2.290000,-0.000056,-0.026521,0.057025,-0.929231,0.583354,9.898944
2.295000,0.003172,-0.029943,0.069465,-0.968310,0.644916,9.814806
2.300000,0.001828,-0.029886,0.067386,-0.966099,0.643889,9.842385
2.305000,-0.000247,-0.025806,0.067534,-0.951891,0.624255,9.822244
2.310000,-0.000105,-0.029960,0.065685,-0.948509,0.642027,9.866481
2.315000,0.003704,-0.025975,0.067641,-0.959367,0.606141,9.817241
2.320000,0.004242,-0.025032,0.061721,-0.993584,0.687331,9.867000
2.325000,-0.001481,-0.028966,0.066251,-0.906366,0.621559,9.842186
2.330000,0.000936,-0.027938,0.069269,-0.934158,0.596859,9.851689
2.335000,-0.001632,-0.026251,0.066906,-0.966990,0.642039,9.805751
2.340000,0.000356,-0.030263,0.069148,-0.958087,0.622435,9.803991
2.345000,-0.003121,-0.029964,0.066766,-0.918995,0.634060,9.811523
2.350000,-0.005701,-0.026433,0.064606,-0.922871,0.599628,9.870790
2.355000,0.000766,-0.032030,0.067178,-0.893682,0.625323,9.774514
2.360000,-0.000222,-0.023927,0.061348,-0.902286,0.622665,9.823009
2.365000,-0.001301,-0.029537,0.068733,-0.967029,0.626086,9.797868
2.370000,-0.003693,-0.020760,0.063612,-0.917682,0.636861,9.768530
2.375000,-0.005886,-0.035231,0.065696,-0.969639,0.599746,9.780268
2.380000,-0.000709,-0.028096,0.070619,-0.934521,0.647787,9.860405
2.385000,0.003264,-0.033740,0.063733,-0.957715,0.583014,9.848146
2.390000,-0.001111,-0.034289,0.062912,-0.917911,0.608819,9.833781
2.395000,-0.004086,-0.027019,0.069554,-0.981249,0.663203,9.812654
2.400000,-0.007264,-0.028494,0.063240,-0.963097,0.611098,9.868144
2.405000,-0.009598,-0.033531,0.061109,-0.960543,0.615912,9.787914
2.410000,-0.003497,-0.030193,0.068354,-0.865816,0.589623,9.813281
2.415000,-0.006523,-0.031971,0.067402,-0.904434,0.602996,9.867863
2.420000,-0.005808,-0.031066,0.063527,-0.901396,0.639431,9.828199
2.425000,-0.011735,-0.031553,0.067981,-0.932955,0.613031,9.843696
2.430000,-0.011016,-0.028541,0.060524,-0.916567,0.632043,9.813466
2.435000,-0.004438,-0.029547,0.064614,-0.931156,0.637760,9.837925
2.440000,-0.004320,-0.029899,0.064505,-0.949120,0.581839,9.788860
2.445000,-0.012430,-0.033005,0.063515,-0.914463,0.604457,9.840341
2.450000,-0.003308,-0.034280,0.065470,-0.926791,0.583913,9.793565
2.455000,-0.006788,-0.030650,0.065393,-0.897470,0.618276,9.859916
2.460000,-0.007118,-0.031084,0.069591,-0.926257,0.621573,9.859637
2.465000,-0.004821,-0.029150,0.068108,-0.920733,0.636023,9.814903
2.470000,-0.009071,-0.032386,0.067862,-0.862942,0.644894,9.868434
2.475000,-0.006015,-0.031384,0.063637,-0.927674,0.608206,9.881631
2.480000,-0.006635,-0.030835,0.067987,-0.949334,0.582947,9.846126
2.485000,-0.005581,-0.033835,0.067923,-0.964541,0.616617,9.873677
2.490000,-0.009532,-0.034003,0.074276,-0.905518,0.641709,9.811580
2.495000,-0.012777,-0.036849,0.069241,-0.955668,0.539044,9.812881
2.500000,-0.010657,-0.033188,0.062535,-0.929086,0.599319,9.773519
2.505000,-0.009477,-0.030646,0.070378,-0.890120,0.631012,9.840756
2.510000,-0.005567,-0.032183,0.072523,-0.884714,0.578242,9.837481
2.515000,-0.015554,-0.029034,0.065444,-0.864638,0.659901,9.832473
2.520000,-0.010493,-0.033222,0.067386,-0.834038,0.630791,9.839625
2.525000,-0.007705,-0.039045,0.066641,-0.984321,0.624635,9.767542
2.530000,-0.009522,-0.035681,0.073949,-0.936271,0.579666,9.883607
2.535000,-0.010112,-0.032451,0.065585,-0.894393,0.565657,9.828086
2.540000,-0.011852,-0.030982,0.066520,-0.870717,0.542137,9.875599
2.545000,-0.010626,-0.028357,0.067875,-0.898048,0.589570,9.798899
2.550000,-0.012955,-0.032817,0.066685,-0.942974,0.598637,9.803632
2.555000,-0.013198,-0.030923,0.064164,-0.896511,0.569275,9.850169
2.560000,-0.016287,-0.038232,0.060062,-0.826349,0.601371,9.882735
2.565000,-0.014229,-0.030311,0.064951,-0.928377,0.604986,9.825584
2.570000,-0.012604,-0.032522,0.068063,-0.895737,0.508825,9.799006
2.575000,-0.011963,-0.028039,0.066185,-0.846818,0.505328,9.879581
2.580000,-0.017343,-0.037020,0.065392,-0.878161,0.539205,9.864993
2.585000,-0.018538,-0.033672,0.063642,-0.879507,0.513107,9.805963
2.590000,-0.018234,-0.031451,0.059576,-0.832823,0.556721,9.841270
2.595000,-0.022405,-0.036671,0.068809,-0.838577,0.540864,9.869791
2.600000,-0.014512,-0.032454,0.065660,-0.836970,0.517828,9.855316
2.605000,-0.010699,-0.032172,0.065438,-0.865721,0.575347,9.828019
2.610000,-0.012377,-0.030550,0.062217,-0.824317,0.567496,9.831393
2.615000,-0.013081,-0.036980,0.067705,-0.888713,0.563323,9.848374
2.620000,-0.016070,-0.035762,0.069917,-0.860492,0.577765,9.863537
2.625000,-0.022675,-0.032149,0.073223,-0.907540,0.636734,9.783524
2.630000,-0.018772,-0.032953,0.064509,-0.902019,0.564176,9.850583
2.635000,-0.014330,-0.035891,0.060217,-0.856938,0.596829,9.823866
2.640000,-0.014865,-0.039263,0.064136,-0.908504,0.559217,9.802799
2.645000,-0.012529,-0.033735,0.066434,-0.850227,0.593019,9.849847
2.650000,-0.020279,-0.035109,0.064995,-0.854330,0.541429,9.840551
2.655000,-0.014891,-0.037865,0.065861,-0.876270,0.533091,9.915434
2.660000,-0.014804,-0.037544,0.064377,-0.857804,0.587697,9.835836
2.665000,-0.016026,-0.040907,0.067517,-0.827057,0.552886,9.820089
2.670000,-0.015520,-0.038714,0.065457,-0.847164,0.519080,9.918932
2.675000,-0.019693,-0.041899,0.069616,-0.853474,0.543505,9.854425
2.680000,-0.017465,-0.036263,0.068387,-0.851163,0.571709,9.825612
2.685000,-0.020795,-0.034149,0.068430,-0.862334,0.544270,9.868970
2.690000,-0.022466,-0.039738,0.068706,-0.848838,0.518463,9.831955
2.695000,-0.022466,-0.037806,0.070281,-0.857738,0.504391,9.856442
2.700000,-0.018881,-0.036529,0.066099,-0.842921,0.559026,9.837970
2.705000,-0.022431,-0.037129,0.069241,-0.833614,0.521491,9.926350
2.710000,-0.013473,-0.039701,0.069389,-0.885446,0.533648,9.887978
2.715000,-0.018952,-0.040223,0.067851,-0.927873,0.482940,9.842670
2.720000,-0.024019,-0.032006,0.066697,-0.814678,0.532240,9.846945
2.725000,-0.021290,-0.030935,0.071148,-0.885282,0.519094,9.892690
2.730000,-0.026593,-0.031414,0.068197,-0.881054,0.458401,9.844158
2.735000,-0.017112,-0.036324,0.067955,-0.834541,0.515841,9.854526
2.740000,-0.024490,-0.038844,0.063519,-0.859067,0.510119,9.848459
2.745000,-0.023909,-0.042192,0.062972,-0.854587,0.535365,9.834426
2.750000,-0.021965,-0.041932,0.069855,-0.859079,0.493436,9.844525
2.755000,-0.022050,-0.038090,0.068265,-0.896915,0.512722,9.869445
2.760000,-0.022228,-0.038359,0.067259,-0.789916,0.479944,9.851725
2.765000,-0.023551,-0.035509,0.062857,-0.793245,0.538061,9.913684
2.770000,-0.023952,-0.039504,0.060888,-0.854137,0.471923,9.784036
2.775000,-0.027055,-0.038579,0.065775,-0.761103,0.554837,9.850508
2.780000,-0.022558,-0.039020,0.065033,-0.822361,0.502773,9.892913
2.785000,-0.022725,-0.041089,0.061800,-0.831207,0.540290,9.813768
2.790000,-0.028032,-0.030871,0.066359,-0.844580,0.576848,9.836575
2.795000,-0.028892,-0.037923,0.062520,-0.880847,0.529177,9.828933
2.800000,-0.024293,-0.041590,0.065542,-0.868828,0.469925,9.898440
2.805000,-0.023775,-0.036315,0.066198,-0.841003,0.495454,9.833255
2.810000,-0.024738,-0.038737,0.066852,-0.748910,0.494155,9.813795
2.815000,-0.021764,-0.041643,0.063149,-0.773493,0.505610,9.816408
2.820000,-0.026502,-0.034391,0.063538,-0.820004,0.563525,9.843145
2.825000,-0.032066,-0.039874,0.065412,-0.840683,0.540730,9.853563
2.830000,-0.027197,-0.037147,0.066724,-0.881542,0.506519,9.864042
2.835000,-0.026397,-0.036706,0.069602,-0.780581,0.436118,9.825019
2.840000,-0.030889,-0.040385,0.067341,-0.874555,0.502007,9.802521
2.845000,-0.031077,-0.042772,0.064752,-0.809969,0.418124,9.895047
2.850000,-0.031249,-0.032715,0.061610,-0.792300,0.494843,9.841471
2.855000,-0.032905,-0.040704,0.070092,-0.791068,0.501457,9.893488
2.860000,-0.027405,-0.039577,0.068838,-0.794490,0.514865,9.863306
2.865000,-0.027287,-0.036447,0.066215,-0.846533,0.470357,9.852218
2.870000,-0.025993,-0.037617,0.064709,-0.805657,0.460323,9.834677
2.875000,-0.027188,-0.042803,0.069397,-0.821468,0.480084,9.837754
2.880000,-0.031871,-0.041651,0.068736,-0.860692,0.468493,9.830701
2.885000,-0.031659,-0.034384,0.064093,-0.830452,0.416387,9.794163
2.890000,-0.031115,-0.042002,0.068264,-0.800835,0.433304,9.894581
2.895000,-0.027345,-0.039980,0.068537,-0.754093,0.470228,9.834373
2.900000,-0.030544,-0.039608,0.067013,-0.769669,0.465747,9.801481
2.905000,-0.033549,-0.043420,0.067239,-0.810663,0.464585,9.836471
2.910000,-0.033584,-0.037260,0.067379,-0.808340,0.401895,9.812963
2.915000,-0.035203,-0.040586,0.063289,-0.767611,0.471823,9.846872
2.920000,-0.034455,-0.042001,0.067032,-0.797628,0.440937,9.887267
2.925000,-0.033199,-0.040998,0.067815,-0.788679,0.477478,9.837569
2.930000,-0.034735,-0.038701,0.066530,-0.771585,0.464443,9.873808
2.935000,-0.035573,-0.041056,0.064523,-0.807886,0.444216,9.898334
2.940000,-0.026631,-0.043324,0.066013,-0.816556,0.414837,9.845006
2.945000,-0.038009,-0.039867,0.062746,-0.796182,0.411982,9.873759
2.950000,-0.030990,-0.039222,0.065942,-0.837744,0.401839,9.866902
2.955000,-0.035468,-0.042088,0.067658,-0.724590,0.408953,9.866841
2.960000,-0.035597,-0.044594,0.065075,-0.794079,0.415912,9.869407
2.965000,-0.034999,-0.047492,0.067685,-0.770582,0.383595,9.834123
2.970000,-0.035822,-0.039361,0.065344,-0.754989,0.401579,9.880234
2.975000,-0.034615,-0.042597,0.068589,-0.758127,0.439214,9.851078
2.980000,-0.031724,-0.037991,0.065149,-0.777282,0.374099,9.834733
2.985000,-0.032187,-0.044527,0.067077,-0.780145,0.466519,9.859627
2.990000,-0.040982,-0.043017,0.067335,-0.759268,0.428756,9.893816
2.995000,-0.034835,-0.047519,0.064142,-0.769636,0.391903,9.866401
3.000000,-0.034984,-0.037088,0.063936,-0.810520,0.372382,9.841946
3.005000,-0.034576,-0.042484,0.063977,-0.806191,0.400549,9.875078
3.010000,-0.032972,-0.038357,0.068168,-0.762290,0.386470,9.866070
3.015000,-0.032107,-0.041866,0.068266,-0.769807,0.416954,9.829214
3.020000,-0.040641,-0.045228,0.060178,-0.742551,0.471808,9.850990
3.025000,-0.039419,-0.041298,0.070797,-0.764094,0.436369,9.857222
3.030000,-0.036578,-0.047001,0.067054,-0.793177,0.363955,9.810766
3.035000,-0.035712,-0.035683,0.063834,-0.771808,0.382084,9.871256
3.040000,-0.034802,-0.042736,0.064788,-0.816091,0.409399,9.860656
3.045000,-0.043413,-0.046235,0.063021,-0.773994,0.360995,9.881864
3.050000,-0.041080,-0.044315,0.062831,-0.738332,0.372486,9.858950
3.055000,-0.036804,-0.042917,0.065537,-0.734933,0.394143,9.862523
3.060000,-0.039852,-0.042483,0.063796,-0.711061,0.388892,9.872812
3.065000,-0.040856,-0.043728,0.068015,-0.812835,0.369728,9.840304
3.070000,-0.042568,-0.041103,0.063631,-0.783969,0.405336,9.803445
3.075000,-0.036300,-0.040031,0.059792,-0.758048,0.381353,9.890601
3.080000,-0.041225,-0.043812,0.068150,-0.776680,0.387650,9.893474
3.085000,-0.043012,-0.042502,0.066141,-0.779555,0.372166,9.852844
3.090000,-0.042479,-0.044569,0.062966,-0.734508,0.377319,9.883525
3.095000,-0.040028,-0.042937,0.064210,-0.725313,0.343692,9.878021
3.100000,-0.041933,-0.045978,0.067046,-0.694226,0.385522,9.847853
3.105000,-0.044958,-0.048248,0.066708,-0.736749,0.299330,9.856819
3.110000,-0.037788,-0.043901,0.065760,-0.774863,0.375300,9.840637
3.115000,-0.042959,-0.040469,0.062807,-0.744525,0.351679,9.873646
3.120000,-0.036863,-0.044047,0.067403,-0.739606,0.299122,9.895711
3.125000,-0.039507,-0.040472,0.062670,-0.730963,0.403735,9.928733
3.130000,-0.041705,-0.043271,0.062935,-0.739778,0.321076,9.894215
3.135000,-0.043368,-0.044517,0.068188,-0.735938,0.372564,9.858041
3.140000,-0.040137,-0.047360,0.065742,-0.774616,0.312812,9.841199
3.145000,-0.036810,-0.047585,0.071597,-0.708910,0.349870,9.841715
3.150000,-0.040391,-0.038830,0.068708,-0.715152,0.335607,9.884562
3.155000,-0.042580,-0.045196,0.068371,-0.735389,0.357241,9.927213
3.160000,-0.040400,-0.046104,0.065188,-0.691986,0.303196,9.920384
3.165000,-0.044089,-0.044323,0.067003,-0.624442,0.322561,9.847411
3.170000,-0.044937,-0.042849,0.070815,-0.751025,0.311879,9.858248
3.175000,-0.045106,-0.040400,0.068371,-0.676362,0.305323,9.832169
3.180000,-0.044322,-0.047227,0.066347,-0.685407,0.251370,9.887471
3.185000,-0.037963,-0.048744,0.066654,-0.750872,0.288023,9.868987
3.190000,-0.039134,-0.040321,0.066019,-0.683068,0.228477,9.855240
3.195000,-0.045580,-0.043508,0.063314,-0.738758,0.280982,9.883134
3.200000,-0.043921,-0.046409,0.068463,-0.714762,0.287063,9.845466
3.205000,-0.051545,-0.044897,0.067724,-0.693913,0.382930,9.855980
3.210000,-0.049349,-0.040107,0.070326,-0.730705,0.298523,9.852079
3.215000,-0.044072,-0.046561,0.067926,-0.675995,0.356973,9.854645
3.220000,-0.043588,-0.042503,0.066329,-0.655118,0.307947,9.871559
3.225000,-0.039745,-0.048020,0.069174,-0.724153,0.309790,9.892008
3.230000,-0.043471,-0.041432,0.063582,-0.737806,0.295377,9.877505
3.235000,-0.046791,-0.038385,0.065950,-0.737071,0.264757,9.882197
3.240000,-0.047039,-0.042385,0.068227,-0.669361,0.309208,9.892816
3.245000,-0.047330,-0.041332,0.068927,-0.716201,0.293882,9.899741
3.250000,-0.042837,-0.044669,0.068122,-0.752036,0.270060,9.868954
3.255000,-0.050451,-0.046190,0.064728,-0.726706,0.291621,9.849119
3.260000,-0.048781,-0.043354,0.063559,-0.648172,0.285945,9.844188
3.265000,-0.052178,-0.046099,0.063285,-0.723890,0.230768,9.853831
3.270000,-0.049458,-0.045936,0.061714,-0.702625,0.247319,9.846992
3.275000,-0.044333,-0.045684,0.071893,-0.661276,0.274218,9.907529
3.280000,-0.044932,-0.051436,0.063027,-0.690071,0.268732,9.878523
3.285000,-0.053283,-0.045521,0.066767,-0.708544,0.222188,9.887423
3.290000,-0.050187,-0.044181,0.068447,-0.668546,0.211277,9.843820
3.295000,-0.054554,-0.048336,0.062726,-0.631186,0.270703,9.863314
3.300000,-0.052930,-0.041467,0.062750,-0.736815,0.225836,9.827777
3.305000,-0.047023,-0.050041,0.066902,-0.629440,0.217840,9.867689
3.310000,-0.043949,-0.047841,0.064581,-0.682199,0.219966,9.847639
3.315000,-0.046742,-0.043393,0.062630,-0.610901,0.288924,9.862410
3.320000,-0.055046,-0.050255,0.064712,-0.676599,0.288057,9.833562
3.325000,-0.050626,-0.047844,0.067771,-0.674604,0.225099,9.871560
3.330000,-0.051870,-0.045690,0.066942,-0.691940,0.256066,9.882216
3.335000,-0.051032,-0.044481,0.069130,-0.687036,0.216681,9.875784
3.340000,-0.045895,-0.046292,0.065966,-0.602157,0.217347,9.902147
3.345000,-0.053108,-0.047274,0.067987,-0.682008,0.201703,9.869066
3.350000,-0.046778,-0.052593,0.063444,-0.629000,0.152550,9.929983
3.355000,-0.050981,-0.041700,0.062366,-0.632131,0.195837,9.881997
3.360000,-0.053889,-0.049695,0.060043,-0.740217,0.210644,9.944558
3.365000,-0.052743,-0.049322,0.066645,-0.673493,0.193831,9.836023
3.370000,-0.054845,-0.044703,0.062605,-0.645534,0.195114,9.848022
3.375000,-0.051321,-0.045530,0.061476,-0.639343,0.226712,9.865124
3.380000,-0.052685,-0.048068,0.065738,-0.681852,0.184570,9.886931
3.385000,-0.054914,-0.048416,0.064892,-0.669601,0.200950,9.913967
3.390000,-0.055209,-0.050076,0.064612,-0.680629,0.175805,9.830442
3.395000,-0.058620,-0.047297,0.067589,-0.590501,0.185928,9.903824
3.400000,-0.054095,-0.050578,0.066994,-0.648337,0.207398,9.884141
3.405000,-0.056328,-0.051749,0.061934,-0.658768,0.211753,9.872197
3.410000,-0.049321,-0.046882,0.064491,-0.662859,0.122458,9.908328
3.415000,-0.049863,-0.049290,0.070253,-0.637288,0.177550,9.910200
3.420000,-0.053926,-0.050024,0.063913,-0.685086,0.172784,9.875590
3.425000,-0.050493,-0.046801,0.062734,-0.607518,0.180774,9.923377
3.430000,-0.051624,-0.049115,0.068084,-0.641070,0.140049,9.883859
3.435000,-0.052849,-0.045738,0.064848,-0.626306,0.187415,9.874622
3.440000,-0.049873,-0.053403,0.061118,-0.634487,0.195732,9.874241
3.445000,-0.058951,-0.046686,0.061525,-0.585884,0.186453,9.922356
3.450000,-0.051307,-0.045800,0.067027,-0.631824,0.153097,9.877816
3.455000,-0.054657,-0.050768,0.062670,-0.578094,0.117810,9.909986
3.460000,-0.049324,-0.052275,0.069016,-0.622266,0.193724,9.860937
3.465000,-0.051725,-0.051356,0.060900,-0.563903,0.121540,9.839856
3.470000,-0.055686,-0.050305,0.068379,-0.641096,0.130247,9.901909
3.475000,-0.058127,-0.046329,0.068012,-0.553705,0.203133,9.856679
3.480000,-0.058294,-0.052241,0.064717,-0.615202,0.130378,9.844100
3.485000,-0.052422,-0.054017,0.063135,-0.585558,0.152463,9.872532
3.490000,-0.053645,-0.050628,0.070675,-0.576252,0.107943,9.904669
3.495000,-0.057332,-0.048550,0.068380,-0.630595,0.169323,9.871117
3.500000,-0.053568,-0.048445,0.063036,-0.644731,0.087179,9.888220
3.505000,-0.060286,-0.051325,0.063931,-0.621326,0.107234,9.897701
3.510000,-0.053840,-0.048508,0.066586,-0.584184,0.104218,9.885231
3.515000,-0.062440,-0.049732,0.063348,-0.561209,0.058366,9.847749
3.520000,-0.050702,-0.047837,0.068759,-0.620114,0.067210,9.894503
3.525000,-0.057230,-0.048476,0.069230,-0.568938,0.061116,9.864903
3.530000,-0.064500,-0.048534,0.063174,-0.630803,0.115029,9.847223
3.535000,-0.055024,-0.048090,0.071254,-0.613370,0.129581,9.867032
3.540000,-0.061829,-0.044732,0.061345,-0.539374,0.086977,9.902472
3.545000,-0.059665,-0.052692,0.061808,-0.599517,0.101709,9.922953
3.550000,-0.060931,-0.050352,0.063680,-0.587626,0.060316,9.839666
3.555000,-0.060123,-0.050600,0.071682,-0.538242,0.075533,9.842405
3.560000,-0.064010,-0.047738,0.068058,-0.518985,0.076473,9.893104
3.565000,-0.060073,-0.046358,0.067211,-0.602615,0.086087,9.851612
3.570000,-0.058874,-0.054943,0.064993,-0.541689,0.115590,9.844581
3.575000,-0.059217,-0.054766,0.067658,-0.563341,0.040275,9.854517
3.580000,-0.057854,-0.055921,0.064568,-0.562781,0.051165,9.874120
3.585000,-0.059421,-0.049155,0.060594,-0.588573,0.091630,9.803915
3.590000,-0.056910,-0.046939,0.070009,-0.640588,0.050460,9.862983
3.595000,-0.055657,-0.049013,0.067370,-0.545817,0.015141,9.895168
3.600000,-0.066702,-0.049752,0.064878,-0.571355,0.064636,9.904171
3.605000,-0.062671,-0.050065,0.068621,-0.552140,0.061015,9.882445
3.610000,-0.064376,-0.046917,0.062994,-0.560871,0.041753,9.872367
3.615000,-0.062407,-0.053377,0.067006,-0.519168,0.054568,9.848533
3.620000,-0.060991,-0.044665,0.065123,-0.564080,0.019327,9.899246
3.625000,-0.061664,-0.047536,0.067424,-0.540838,0.042750,9.899653
3.630000,-0.060152,-0.052151,0.068131,-0.557099,0.021034,9.833310
3.635000,-0.061896,-0.056111,0.066407,-0.576553,0.006199,9.815855
3.640000,-0.060574,-0.052480,0.066196,-0.578261,0.060917,9.906090
3.645000,-0.056634,-0.052996,0.067461,-0.572948,0.029963,9.877001
3.650000,-0.057533,-0.050382,0.069932,-0.534510,0.028750,9.882266
3.655000,-0.061026,-0.053900,0.060832,-0.560463,0.009178,9.869082
3.660000,-0.055435,-0.052335,0.063134,-0.504677,0.043690,9.862829
3.665000,-0.059563,-0.048810,0.061507,-0.544562,0.034619,9.912013
3.670000,-0.064500,-0.048315,0.065621,-0.565882,0.002525,9.940032
3.675000,-0.061240,-0.057646,0.060225,-0.491207,0.004621,9.890119
3.680000,-0.066070,-0.047417,0.063577,-0.552733,-0.000977,9.975454
3.685000,-0.062627,-0.050976,0.059596,-0.551568,-0.056630,9.913938
3.690000,-0.064904,-0.053505,0.064245,-0.519821,0.057544,9.886068
3.695000,-0.059834,-0.054359,0.060864,-0.550156,-0.009527,9.893222
3.700000,-0.059977,-0.049514,0.062128,-0.517919,0.021137,9.845498
3.705000,-0.065311,-0.056150,0.065618,-0.525525,-0.040914,9.900979
3.710000,-0.064498,-0.049434,0.063181,-0.512931,-0.059965,9.899400
3.715000,-0.064703,-0.057527,0.058310,-0.550074,0.001700,9.822364
3.720000,-0.060177,-0.053031,0.064421,-0.496260,-0.049050,9.885194
3.725000,-0.064277,-0.054332,0.066262,-0.513204,-0.006162,9.911958
3.730000,-0.062774,-0.050301,0.060298,-0.554160,0.011232,9.874937
3.735000,-0.062157,-0.049384,0.064748,-0.488659,-0.072287,9.846973
3.740000,-0.067717,-0.054557,0.055806,-0.522993,-0.094967,9.916409
3.745000,-0.063080,-0.051330,0.057784,-0.520657,0.000700,9.865230
3.750000,-0.061936,-0.055505,0.063110,-0.427473,-0.026369,9.926200
3.755000,-0.064786,-0.057502,0.059189,-0.479985,-0.041013,9.930506
3.760000,-0.066199,-0.051885,0.061434,-0.482920,-0.116038,9.888073
3.765000,-0.067560,-0.053395,0.066539,-0.489233,-0.038320,9.863242
3.770000,-0.073044,-0.056438,0.064255,-0.533915,-0.049553,9.831902
3.775000,-0.065626,-0.049118,0.064952,-0.522308,-0.043873,9.883261
3.780000,-0.067154,-0.049793,0.064558,-0.553594,-0.087043,9.933638
3.785000,-0.065753,-0.047281,0.065653,-0.464323,-0.121341,9.873132
3.790000,-0.061007,-0.049154,0.063955,-0.510667,-0.101890,9.879381
3.795000,-0.065976,-0.056268,0.060420,-0.471729,-0.040512,9.900086
3.800000,-0.065429,-0.049280,0.059710,-0.491582,-0.094036,9.872024
3.805000,-0.068779,-0.050429,0.065063,-0.491627,-0.039756,9.843008
3.810000,-0.066584,-0.056291,0.068293,-0.488031,-0.079948,9.877307
3.815000,-0.062844,-0.051890,0.064695,-0.475892,-0.067117,9.903405
3.820000,-0.064397,-0.057868,0.066872,-0.445831,-0.075653,9.879666
3.825000,-0.066247,-0.056842,0.061751,-0.416403,-0.103484,9.871756
3.830000,-0.065601,-0.054033,0.059987,-0.459535,-0.116444,9.890201
3.835000,-0.063022,-0.052907,0.067189,-0.455995,-0.127040,9.865749
3.840000,-0.066439,-0.056857,0.064487,-0.425170,-0.117213,9.885080
3.845000,-0.061088,-0.051158,0.064809,-0.439145,-0.109153,9.935823
3.850000,-0.064120,-0.060920,0.065344,-0.453939,-0.163402,9.922924
3.855000,-0.067207,-0.055588,0.056827,-0.464647,-0.121461,9.907465
3.860000,-0.066428,-0.054039,0.060709,-0.471441,-0.108519,9.838283
3.865000,-0.068809,-0.054035,0.062856,-0.439731,-0.074460,9.879297
3.870000,-0.068098,-0.055252,0.056555,-0.421836,-0.122572,9.910096
3.875000,-0.067393,-0.051553,0.062228,-0.434736,-0.154710,9.925553
3.880000,-0.071062,-0.052057,0.063697,-0.428941,-0.147651,9.868101
3.885000,-0.069301,-0.055037,0.062462,-0.480268,-0.152453,9.833746
3.890000,-0.068981,-0.054802,0.068701,-0.402196,-0.110416,9.912122
3.895000,-0.068026,-0.059386,0.061807,-0.460025,-0.172759,9.916210
3.900000,-0.068790,-0.056713,0.057862,-0.404270,-0.125269,9.887902
3.905000,-0.066836,-0.054710,0.064987,-0.433478,-0.171245,9.871033
3.910000,-0.072030,-0.055473,0.066177,-0.494610,-0.147959,9.903073
3.915000,-0.070173,-0.059229,0.060879,-0.457432,-0.148594,9.904404
3.920000,-0.069286,-0.052792,0.060210,-0.436182,-0.135785,9.879803
3.925000,-0.068776,-0.058648,0.062072,-0.420813,-0.187183,9.933238
3.930000,-0.066686,-0.054403,0.065456,-0.396232,-0.139154,9.859923
3.935000,-0.070830,-0.054609,0.060385,-0.372031,-0.236602,9.895620
3.940000,-0.073248,-0.057969,0.066435,-0.432519,-0.180345,9.903784
3.945000,-0.070351,-0.052990,0.064346,-0.426655,-0.198465,9.896058
3.950000,-0.066156,-0.055281,0.062256,-0.464677,-0.165024,9.870926
3.955000,-0.066338,-0.053281,0.066286,-0.409909,-0.221505,9.960159
3.960000,-0.065480,-0.054841,0.060455,-0.452222,-0.151976,9.882995
3.965000,-0.068285,-0.052364,0.063373,-0.402256,-0.205972,9.911741
3.970000,-0.066286,-0.055248,0.063448,-0.426378,-0.197703,9.930497
3.975000,-0.068318,-0.056084,0.062203,-0.446122,-0.217519,9.928655
3.980000,-0.064865,-0.060255,0.064515,-0.405540,-0.264031,9.902759
3.985000,-0.068499,-0.053148,0.058537,-0.424468,-0.204112,9.841953
3.990000,-0.065272,-0.054075,0.060870,-0.367590,-0.184622,9.878659
3.995000,-0.072622,-0.052837,0.070424,-0.398340,-0.235249,9.856690
4.000000,-0.067562,-0.059020,0.064106,-0.388190,-0.220814,9.882332
4.005000,-0.063743,-0.055040,0.067707,-0.383022,-0.190864,9.876356
4.010000,-0.068524,-0.055130,0.061564,-0.435715,-0.232228,9.956938
4.015000,-0.064719,-0.055737,0.067976,-0.391662,-0.263378,9.888438
4.020000,-0.068701,-0.053089,0.062713,-0.394283,-0.224299,9.894109
4.025000,-0.073349,-0.055806,0.062097,-0.406526,-0.233308,9.894583
4.030000,-0.072319,-0.051597,0.060895,-0.383584,-0.254001,9.867948
4.035000,-0.068814,-0.054773,0.064201,-0.331548,-0.252171,9.884019
4.040000,-0.079157,-0.053941,0.059998,-0.409169,-0.275164,9.903717
4.045000,-0.071455,-0.056348,0.061016,-0.385626,-0.271453,9.868424
4.050000,-0.073935,-0.052802,0.063365,-0.383787,-0.285478,9.941529
4.055000,-0.072010,-0.053656,0.058271,-0.348165,-0.248492,9.863623
4.060000,-0.070623,-0.058785,0.060890,-0.416900,-0.267430,9.920375
4.065000,-0.072900,-0.056911,0.062752,-0.429742,-0.273173,9.875711
4.070000,-0.070931,-0.063979,0.058554,-0.384226,-0.257911,9.850063
4.075000,-0.075120,-0.056790,0.060178,-0.365104,-0.307772,9.891438
4.080000,-0.074274,-0.055734,0.064379,-0.388028,-0.303447,9.931479
4.085000,-0.073832,-0.059152,0.056793,-0.393848,-0.296091,9.875263
4.090000,-0.064842,-0.058457,0.058749,-0.370071,-0.261465,9.875572
4.095000,-0.070955,-0.055469,0.060259,-0.365732,-0.335470,9.813123
4.100000,-0.072834,-0.053438,0.061356,-0.393474,-0.312339,9.927565
4.105000,-0.074523,-0.055917,0.061775,-0.333015,-0.326808,9.924283
4.110000,-0.072987,-0.053983,0.064651,-0.305995,-0.257990,9.860269
4.115000,-0.067306,-0.060675,0.059910,-0.346969,-0.354085,9.891578
4.120000,-0.070202,-0.053524,0.060952,-0.315430,-0.316683,9.914832
4.125000,-0.068705,-0.050613,0.061139,-0.333686,-0.324756,9.884295
4.130000,-0.074313,-0.053201,0.058572,-0.384971,-0.330564,9.873152
4.135000,-0.064999,-0.055447,0.067997,-0.388600,-0.350905,9.930258
4.140000,-0.073810,-0.058290,0.062943,-0.365197,-0.354290,9.912754
4.145000,-0.072822,-0.055878,0.064759,-0.304639,-0.311193,9.949355
4.150000,-0.073116,-0.059091,0.066745,-0.328459,-0.348629,9.825542
4.155000,-0.068893,-0.053807,0.059089,-0.325759,-0.316620,9.849401
4.160000,-0.069872,-0.055717,0.058508,-0.347523,-0.360569,9.868568
4.165000,-0.073237,-0.062088,0.060652,-0.279123,-0.341658,9.868427
4.170000,-0.070807,-0.054479,0.062653,-0.298570,-0.385674,9.919755
4.175000,-0.075830,-0.055986,0.056342,-0.321428,-0.411212,9.894876
4.180000,-0.063762,-0.061825,0.061419,-0.320772,-0.364674,9.907316
4.185000,-0.076577,-0.051715,0.062577,-0.304005,-0.369319,9.914023
4.190000,-0.076522,-0.053824,0.059221,-0.311838,-0.349214,9.910671
4.195000,-0.069852,-0.055283,0.057010,-0.288061,-0.364926,9.897721
4.200000,-0.076675,-0.056718,0.062442,-0.305045,-0.372991,9.922666
4.205000,-0.075719,-0.060544,0.055185,-0.308464,-0.366262,9.894792
4.210000,-0.072190,-0.062808,0.062336,-0.323233,-0.333729,9.851444
4.215000,-0.075963,-0.055655,0.055302,-0.335468,-0.347569,9.901915
4.220000,-0.073911,-0.051383,0.062076,-0.301397,-0.409623,9.927676
4.225000,-0.077750,-0.052992,0.063684,-0.306111,-0.336478,9.896870
4.230000,-0.071730,-0.059344,0.059376,-0.286711,-0.382826,9.898280
4.235000,-0.071922,-0.052969,0.060052,-0.291648,-0.450810,9.913957
4.240000,-0.073665,-0.051998,0.062558,-0.286848,-0.462534,9.843389
4.245000,-0.073221,-0.058834,0.059084,-0.309719,-0.437955,9.914339
4.250000,-0.071679,-0.052155,0.057618,-0.232945,-0.432678,9.893981
4.255000,-0.067108,-0.053655,0.055986,-0.268552,-0.373790,9.901340
4.260000,-0.071005,-0.059832,0.060484,-0.306886,-0.463768,9.863813
4.265000,-0.074362,-0.059490,0.058246,-0.310833,-0.385846,9.931532
4.270000,-0.065814,-0.059293,0.061583,-0.284143,-0.447972,9.863986
4.275000,-0.070347,-0.054119,0.066631,-0.319246,-0.392292,9.872135
4.280000,-0.076237,-0.054363,0.060274,-0.234516,-0.492983,9.922269
4.285000,-0.076035,-0.059263,0.054236,-0.263121,-0.454468,9.925006
4.290000,-0.072347,-0.060013,0.057273,-0.312665,-0.486054,9.902404
4.295000,-0.076507,-0.058943,0.060361,-0.285090,-0.447918,9.908324
4.300000,-0.071769,-0.060447,0.060277,-0.319229,-0.462817,9.900125
4.305000,-0.074310,-0.055844,0.064478,-0.230343,-0.523495,9.866522
4.310000,-0.073661,-0.053991,0.059084,-0.218260,-0.442993,9.860361
4.315000,-0.075927,-0.059520,0.055261,-0.276382,-0.423181,9.899492
4.320000,-0.069689,-0.059052,0.057705,-0.278361,-0.496063,9.945680
4.325000,-0.074191,-0.054191,0.061120,-0.280540,-0.442155,9.903837
4.330000,-0.072220,-0.057307,0.060947,-0.244551,-0.424405,9.878227
4.335000,-0.074728,-0.060716,0.059732,-0.248558,-0.426113,9.853564
4.340000,-0.079638,-0.058924,0.059253,-0.278807,-0.415600,9.800272
4.345000,-0.076779,-0.058938,0.061365,-0.231372,-0.486184,9.903760
4.350000,-0.074403,-0.062389,0.059997,-0.285751,-0.560050,9.860153
4.355000,-0.074690,-0.057441,0.059961,-0.247155,-0.448129,9.894114
4.360000,-0.072672,-0.053036,0.063399,-0.273300,-0.487165,9.862004
4.365000,-0.073334,-0.052814,0.060268,-0.256638,-0.542476,9.897342
4.370000,-0.073748,-0.054921,0.062071,-0.220668,-0.471138,9.881212
4.375000,-0.069371,-0.062418,0.063284,-0.273901,-0.563194,9.878729
4.380000,-0.074356,-0.054711,0.057461,-0.275646,-0.510129,9.899636
4.385000,-0.076011,-0.057087,0.056165,-0.233490,-0.518669,9.810212
4.390000,-0.072086,-0.058053,0.056766,-0.178695,-0.507454,9.871578
4.395000,-0.075366,-0.056716,0.062259,-0.229032,-0.508348,9.856244
4.400000,-0.074167,-0.054414,0.060002,-0.212509,-0.537515,9.923740
4.405000,-0.075487,-0.059941,0.055666,-0.219547,-0.536809,9.909751
4.410000,-0.074952,-0.062273,0.059711,-0.253105,-0.556117,9.916031
4.415000,-0.072176,-0.058942,0.059433,-0.259902,-0.581337,9.900707
4.420000,-0.070086,-0.056377,0.056361,-0.225656,-0.546877,9.882180
4.425000,-0.077535,-0.056198,0.058884,-0.253341,-0.603285,9.847288
4.430000,-0.075891,-0.056923,0.061762,-0.264260,-0.531470,9.907517
4.435000,-0.075811,-0.059924,0.064997,-0.222462,-0.537305,9.872947
4.440000,-0.074418,-0.062080,0.058704,-0.248465,-0.587765,9.897948
4.445000,-0.075187,-0.051171,0.058554,-0.186526,-0.551599,9.839321
4.450000,-0.080266,-0.062701,0.058707,-0.176380,-0.585872,9.887650
4.455000,-0.073018,-0.049729,0.057623,-0.222077,-0.571931,9.886760
4.460000,-0.080438,-0.057747,0.057426,-0.208772,-0.603410,9.906833
4.465000,-0.070324,-0.056048,0.061829,-0.228662,-0.603694,9.864066
4.470000,-0.071387,-0.054876,0.061891,-0.194694,-0.572763,9.907144
4.475000,-0.075565,-0.058788,0.060327,-0.150450,-0.566192,9.881259
4.480000,-0.074958,-0.057295,0.050908,-0.173812,-0.574103,9.856464
4.485000,-0.072445,-0.057546,0.055983,-0.151954,-0.587181,9.850614
4.490000,-0.066931,-0.057878,0.057025,-0.168422,-0.569385,9.891125
4.495000,-0.082149,-0.057916,0.058785,-0.191833,-0.581141,9.888988
4.500000,-0.074139,-0.062148,0.061002,-0.193925,-0.598701,9.916123
4.505000,-0.070845,-0.057198,0.056250,-0.209658,-0.646219,9.864488
4.510000,-0.068045,-0.058066,0.058812,-0.179931,-0.593643,9.916662
4.515000,-0.073988,-0.055369,0.068184,-0.255214,-0.623795,9.878571
4.520000,-0.073238,-0.057206,0.056867,-0.083192,-0.627397,9.887319
4.525000,-0.073985,-0.056201,0.060396,-0.166031,-0.579586,9.876168
4.530000,-0.070270,-0.062227,0.061826,-0.156893,-0.608399,9.884385
4.535000,-0.074257,-0.064850,0.057035,-0.178423,-0.652449,9.892456
4.540000,-0.074366,-0.056208,0.056926,-0.154872,-0.630510,9.874980
4.545000,-0.076592,-0.053928,0.057545,-0.203349,-0.596619,9.854203
4.550000,-0.075875,-0.057351,0.054334,-0.184147,-0.694459,9.822396
4.555000,-0.073215,-0.058473,0.062360,-0.107872,-0.635919,9.891516
4.560000,-0.076715,-0.059211,0.058859,-0.130308,-0.629469,9.873890
4.565000,-0.073683,-0.060309,0.054296,-0.184769,-0.653433,9.885394
4.570000,-0.073750,-0.056989,0.063919,-0.148869,-0.664322,9.875199
4.575000,-0.079108,-0.056190,0.059150,-0.145793,-0.685479,9.854089
4.580000,-0.077263,-0.057739,0.066953,-0.137525,-0.601206,9.853977
4.585000,-0.072548,-0.054794,0.062014,-0.201579,-0.680555,9.907279
4.590000,-0.068027,-0.059938,0.055946,-0.189516,-0.674591,9.855272
4.595000,-0.067824,-0.053648,0.058892,-0.103939,-0.650900,9.879009
4.600000,-0.070706,-0.055660,0.058365,-0.160857,-0.683733,9.883658
4.605000,-0.068825,-0.059763,0.057780,-0.103877,-0.695712,9.905364
4.610000,-0.075905,-0.058921,0.057499,-0.094329,-0.681648,9.839226
4.615000,-0.076539,-0.051980,0.059806,-0.148940,-0.662766,9.856210
4.620000,-0.071594,-0.059784,0.058542,-0.168708,-0.679998,9.907879
4.625000,-0.073244,-0.056114,0.055837,-0.138605,-0.689262,9.901148
4.630000,-0.072453,-0.059378,0.054644,-0.132798,-0.733646,9.899971
4.635000,-0.077970,-0.057196,0.057306,-0.135166,-0.703298,9.894692
4.640000,-0.071644,-0.061914,0.061175,-0.155004,-0.713146,9.892719
4.645000,-0.072891,-0.060632,0.055761,-0.136453,-0.665948,9.835033
4.650000,-0.069335,-0.061882,0.056362,-0.105113,-0.736841,9.872046
4.655000,-0.073337,-0.060759,0.062844,-0.122775,-0.670736,9.810993
4.660000,-0.069142,-0.057939,0.057485,-0.081844,-0.693174,9.911778
4.665000,-0.069860,-0.058633,0.056506,-0.128648,-0.759019,9.904491
4.670000,-0.069889,-0.056899,0.056588,-0.134647,-0.739883,9.867268
4.675000,-0.070696,-0.055945,0.053065,-0.106080,-0.726629,9.882873
4.680000,-0.075353,-0.057153,0.056766,-0.091191,-0.724058,9.894235
4.685000,-0.067679,-0.056431,0.059432,-0.076088,-0.763229,9.858108
4.690000,-0.072168,-0.058836,0.062504,-0.100502,-0.778641,9.823337
4.695000,-0.064048,-0.057898,0.060647,-0.079777,-0.692344,9.871058
4.700000,-0.079105,-0.061620,0.056977,-0.115001,-0.730526,9.858049
4.705000,-0.066255,-0.059734,0.058796,-0.140566,-0.722618,9.824642
4.710000,-0.071531,-0.058349,0.053679,-0.119383,-0.743760,9.851771
4.715000,-0.070086,-0.059281,0.058340,-0.109403,-0.735936,9.858601
4.720000,-0.075391,-0.056990,0.060483,-0.108932,-0.766513,9.860615
4.725000,-0.068777,-0.059842,0.054962,-0.107591,-0.742683,9.865608
4.730000,-0.068987,-0.058476,0.057438,-0.111376,-0.773991,9.824366
4.735000,-0.071181,-0.060855,0.057465,-0.077862,-0.757099,9.867700
4.740000,-0.072862,-0.051161,0.061295,-0.068290,-0.808130,9.884980
4.745000,-0.074127,-0.055021,0.056418,-0.081395,-0.729150,9.908879
4.750000,-0.069921,-0.058508,0.053681,-0.046465,-0.785889,9.868460
4.755000,-0.077417,-0.061082,0.051246,-0.071085,-0.791565,9.814630
4.760000,-0.071400,-0.060470,0.049879,-0.055341,-0.734264,9.849746
4.765000,-0.069284,-0.057876,0.055938,-0.004702,-0.830389,9.888868
4.770000,-0.074980,-0.061075,0.059278,-0.096294,-0.799014,9.852425
4.775000,-0.070360,-0.059933,0.058540,-0.092027,-0.803028,9.857730
4.780000,-0.074341,-0.061866,0.055187,-0.133308,-0.736173,9.895566
4.785000,-0.069587,-0.052608,0.050381,-0.038766,-0.856269,9.877829
4.790000,-0.070984,-0.062613,0.058986,-0.023637,-0.804288,9.872923
4.795000,-0.070228,-0.061724,0.056793,-0.034098,-0.806852,9.914116
4.800000,-0.070062,-0.060424,0.058165,-0.033582,-0.833439,9.885036
4.805000,-0.068111,-0.059452,0.059314,-0.020474,-0.858418,9.865890
4.810000,-0.068168,-0.057385,0.059214,-0.062168,-0.863689,9.870262
4.815000,-0.076328,-0.056847,0.061308,-0.034856,-0.842139,9.847730
4.820000,-0.070438,-0.051461,0.059159,-0.047657,-0.843885,9.871969
4.825000,-0.064694,-0.060679,0.054685,-0.058012,-0.838477,9.875484
4.830000,-0.064333,-0.055549,0.051793,-0.081368,-0.847365,9.866853
4.835000,-0.068936,-0.059614,0.055929,-0.072307,-0.874040,9.862750
4.840000,-0.067033,-0.061485,0.059882,-0.043178,-0.872973,9.886296
4.845000,-0.070794,-0.057044,0.056051,-0.038486,-0.855949,9.880213
4.850000,-0.072318,-0.053752,0.059289,-0.009503,-0.841715,9.870711
4.855000,-0.066002,-0.054980,0.057350,-0.016863,-0.809540,9.912889
4.860000,-0.065283,-0.058038,0.060955,-0.033665,-0.833522,9.881869
4.865000,-0.069671,-0.055476,0.058906,-0.031550,-0.859377,9.835042
4.870000,-0.061841,-0.059813,0.057884,-0.018211,-0.836042,9.848066
4.875000,-0.066372,-0.053351,0.057459,-0.029654,-0.851855,9.828060
4.880000,-0.068802,-0.053533,0.057033,-0.084830,-0.895532,9.861041
4.885000,-0.070436,-0.063182,0.052657,0.008290,-0.875899,9.782905
4.890000,-0.066159,-0.058148,0.055986,-0.052302,-0.866688,9.839929
4.895000,-0.070005,-0.060900,0.049757,0.028270,-0.916891,9.837668
4.900000,-0.069123,-0.055305,0.054511,0.005844,-0.832703,9.873026
4.905000,-0.070797,-0.053948,0.053606,-0.019581,-0.874221,9.873522
4.910000,-0.073404,-0.051251,0.058040,0.035132,-0.893869,9.905070
4.915000,-0.070367,-0.057532,0.056045,0.020444,-0.938487,9.886235
4.920000,-0.069575,-0.059080,0.056996,-0.058875,-0.882808,9.834585
4.925000,-0.067200,-0.055772,0.065509,-0.077791,-0.931245,9.917995
4.930000,-0.071265,-0.057896,0.055274,-0.014621,-0.848482,9.859105
4.935000,-0.069543,-0.053160,0.054586,0.002922,-0.916443,9.913819
4.940000,-0.069457,-0.061250,0.057965,-0.021566,-0.934624,9.867369
4.945000,-0.069055,-0.061002,0.055887,-0.023188,-0.913304,9.822902
4.950000,-0.069027,-0.051863,0.053338,0.013699,-0.888814,9.890950
4.955000,-0.065855,-0.057330,0.059407,0.003205,-0.861983,9.863817
4.960000,-0.072401,-0.049788,0.054489,0.030839,-0.899317,9.888247
4.965000,-0.069815,-0.058747,0.056090,0.109231,-0.916164,9.855618
4.970000,-0.066751,-0.054264,0.061160,0.018318,-0.951982,9.838716
4.975000,-0.069129,-0.054442,0.057261,0.045511,-0.884218,9.849493
4.980000,-0.063971,-0.055699,0.054379,0.011746,-0.949476,9.858747
4.985000,-0.064308,-0.053980,0.056659,0.060239,-0.935187,9.866045
4.990000,-0.067413,-0.051037,0.060572,0.015960,-0.920331,9.862404
4.995000,-0.067611,-0.054800,0.056179,0.037686,-0.956463,9.852056
5.000000,-0.070871,-0.058984,0.055360,0.061464,-0.904757,9.865319
5.005000,-0.070259,-0.059161,0.056859,0.022453,-0.989084,9.844967
5.010000,-0.066628,-0.055714,0.052766,0.035217,-0.940228,9.874562
5.015000,-0.063060,-0.055341,0.055846,0.105904,-0.963892,9.902916
5.020000,-0.067909,-0.053418,0.051124,0.066404,-0.985125,9.843704
5.025000,-0.067007,-0.058689,0.047164,0.104819,-0.980334,9.811382
5.030000,-0.062475,-0.051844,0.055214,0.041940,-1.008799,9.864380
5.035000,-0.069014,-0.051059,0.054896,0.066390,-1.001368,9.834476
5.040000,-0.064712,-0.060024,0.057891,0.028434,-0.969023,9.824309
5.045000,-0.063023,-0.061103,0.055105,0.051308,-1.038580,9.827658
5.050000,-0.065246,-0.060019,0.054430,-0.024677,-0.982720,9.822500
5.055000,-0.069033,-0.059107,0.054036,0.042317,-0.978389,9.877393
5.060000,-0.064045,-0.057405,0.058874,0.032681,-1.003707,9.760712
5.065000,-0.065315,-0.058205,0.058589,0.049065,-1.012275,9.918931
5.070000,-0.063860,-0.058986,0.050432,0.025343,-0.963378,9.850103
5.075000,-0.063439,-0.055607,0.053115,0.050126,-0.976721,9.840918
5.080000,-0.065936,-0.057416,0.055294,0.110051,-0.992131,9.876208
5.085000,-0.067893,-0.059474,0.058805,0.085813,-0.997178,9.842726
5.090000,-0.059888,-0.055395,0.053866,0.062469,-1.017664,9.874962
5.095000,-0.062537,-0.054801,0.060729,0.090488,-1.009620,9.869098
5.100000,-0.062503,-0.061406,0.051922,0.101870,-0.989167,9.840357
5.105000,-0.065504,-0.060327,0.055396,0.090792,-0.998278,9.835597
5.110000,-0.065760,-0.053400,0.054575,0.086445,-1.070233,9.832703
5.115000,-0.059980,-0.052329,0.054125,0.099390,-1.022427,9.909027
5.120000,-0.071448,-0.056537,0.045031,0.109790,-0.980357,9.843024
5.125000,-0.063191,-0.054740,0.058418,0.025554,-1.040907,9.855361
5.130000,-0.064662,-0.058224,0.052089,0.082987,-1.026405,9.880420
5.135000,-0.063070,-0.058935,0.055143,0.125675,-1.052772,9.842629
5.140000,-0.060908,-0.058025,0.054277,0.096756,-1.024223,9.786298
5.145000,-0.062357,-0.057393,0.054430,0.128099,-1.026033,9.911845
5.150000,-0.061413,-0.061971,0.052840,0.111668,-1.042524,9.881883
5.155000,-0.068348,-0.054791,0.055021,0.108890,-1.054147,9.835964
5.160000,-0.066967,-0.050625,0.051690,0.134531,-1.057770,9.838425
5.165000,-0.056900,-0.056590,0.058013,0.103289,-1.036704,9.831255
5.170000,-0.065427,-0.058122,0.056952,0.122712,-1.046843,9.836741
5.175000,-0.061544,-0.053247,0.055080,0.117321,-1.102100,9.823768
5.180000,-0.064125,-0.058527,0.055233,0.167528,-1.022634,9.858259
5.185000,-0.064866,-0.054042,0.059368,0.082847,-1.089809,9.762971
5.190000,-0.066403,-0.049985,0.060276,0.141665,-1.056522,9.824800
5.195000,-0.059077,-0.056326,0.060377,0.149379,-1.040264,9.846233
5.200000,-0.063325,-0.052106,0.053193,0.082340,-1.037158,9.865587
5.205000,-0.061291,-0.054224,0.062087,0.053641,-1.079629,9.853653
5.210000,-0.061989,-0.058128,0.058898,0.195571,-1.050169,9.879485
5.215000,-0.063077,-0.056387,0.055409,0.153955,-1.090790,9.880508
5.220000,-0.059702,-0.052834,0.059078,0.149464,-1.112252,9.802537
5.225000,-0.062499,-0.055799,0.054076,0.119763,-1.080043,9.841899
5.230000,-0.058851,-0.056824,0.057601,0.066122,-1.081375,9.840935
5.235000,-0.058593,-0.050109,0.056928,0.143346,-1.106919,9.858209
5.240000,-0.060885,-0.056717,0.057640,0.147324,-1.084807,9.838375
5.245000,-0.062571,-0.061499,0.055611,0.161554,-1.093278,9.805075
5.250000,-0.061320,-0.055525,0.049747,0.138757,-1.096877,9.836494
5.255000,-0.063301,-0.056294,0.051948,0.107414,-1.146209,9.834101
5.260000,-0.061845,-0.049175,0.054360,0.155888,-1.109806,9.816490
5.265000,-0.057024,-0.053651,0.055797,0.162085,-1.164997,9.852892
5.270000,-0.059945,-0.055106,0.056882,0.143088,-1.151813,9.849322
5.275000,-0.052899,-0.058968,0.054928,0.142801,-1.079611,9.835150
5.280000,-0.062835,-0.061192,0.058235,0.155211,-1.141874,9.829153
5.285000,-0.058780,-0.057473,0.053195,0.179684,-1.159816,9.866702
5.290000,-0.060507,-0.054268,0.058284,0.129516,-1.125836,9.847199
5.295000,-0.055664,-0.057404,0.058154,0.104010,-1.120550,9.801266
5.300000,-0.058768,-0.052551,0.052996,0.194827,-1.124368,9.852503
5.305000,-0.056542,-0.061245,0.058634,0.120635,-1.126324,9.842599
5.310000,-0.062916,-0.055583,0.052008,0.142338,-1.126418,9.839333
5.315000,-0.057517,-0.054159,0.049622,0.183049,-1.173833,9.819384
5.320000,-0.059249,-0.058912,0.055390,0.220182,-1.150624,9.852525
5.325000,-0.059759,-0.053036,0.058595,0.197526,-1.175452,9.834425
5.330000,-0.058326,-0.055471,0.059323,0.160216,-1.169396,9.851370
5.335000,-0.059634,-0.057878,0.047374,0.139550,-1.168145,9.810343
5.340000,-0.055531,-0.054023,0.058017,0.196941,-1.160336,9.833464
5.345000,-0.050056,-0.053888,0.055991,0.225853,-1.169425,9.854326
5.350000,-0.055106,-0.055404,0.057958,0.159742,-1.164515,9.820032
5.355000,-0.060334,-0.051132,0.052826,0.150289,-1.177916,9.805936
5.360000,-0.051975,-0.052457,0.057090,0.195792,-1.148051,9.801262
5.365000,-0.053947,-0.055396,0.054902,0.187587,-1.196363,9.874436
5.370000,-0.056980,-0.047792,0.053906,0.197088,-1.148393,9.849410
5.375000,-0.053544,-0.054026,0.055016,0.174326,-1.204775,9.881382
5.380000,-0.053674,-0.053863,0.048905,0.237278,-1.171257,9.788443
5.385000,-0.056248,-0.051730,0.054093,0.235737,-1.275607,9.861221
5.390000,-0.056690,-0.052918,0.052348,0.219194,-1.154641,9.859774
5.395000,-0.054287,-0.051728,0.054790,0.185012,-1.180198,9.861808
5.400000,-0.060924,-0.049440,0.052854,0.236344,-1.187147,9.782802
5.405000,-0.059206,-0.055850,0.048976,0.232491,-1.229760,9.769925
5.410000,-0.051763,-0.054577,0.050119,0.188867,-1.193461,9.821644
5.415000,-0.055475,-0.061633,0.050374,0.169442,-1.197226,9.834191
5.420000,-0.054291,-0.054685,0.052416,0.155225,-1.169727,9.844822
5.425000,-0.051890,-0.053127,0.050302,0.205109,-1.203382,9.796900
5.430000,-0.049143,-0.052517,0.057913,0.247523,-1.189017,9.814770
5.435000,-0.053086,-0.055093,0.050243,0.191240,-1.189867,9.785218
5.440000,-0.053759,-0.057827,0.056680,0.218875,-1.208071,9.830383
5.445000,-0.054260,-0.057572,0.051583,0.268715,-1.194860,9.856433
5.450000,-0.045316,-0.052669,0.052434,0.265244,-1.203977,9.791111
5.455000,-0.056625,-0.055487,0.053721,0.218561,-1.220097,9.786549
5.460000,-0.053902,-0.053116,0.047432,0.205704,-1.146153,9.854414
5.465000,-0.048375,-0.059443,0.052495,0.247288,-1.214906,9.846958
5.470000,-0.050870,-0.051491,0.055962,0.182935,-1.205278,9.785508
5.475000,-0.050546,-0.049229,0.052598,0.189161,-1.259064,9.818854
5.480000,-0.053554,-0.048299,0.051936,0.294352,-1.220594,9.786631
5.485000,-0.044776,-0.053946,0.057277,0.285481,-1.227001,9.840417
5.490000,-0.048305,-0.048829,0.051978,0.210798,-1.189813,9.836998
5.495000,-0.056647,-0.049728,0.048614,0.234543,-1.244737,9.810516
5.500000,-0.050953,-0.055674,0.055806,0.264049,-1.210009,9.856794
5.505000,-0.046866,-0.052199,0.053289,0.232351,-1.219218,9.809315
5.510000,-0.055665,-0.051398,0.049590,0.295852,-1.178142,9.840531
5.515000,-0.053362,-0.052424,0.049603,0.230808,-1.263015,9.813781
5.520000,-0.049743,-0.052871,0.053548,0.224773,-1.204513,9.848693
5.525000,-0.051691,-0.051305,0.050658,0.232279,-1.242169,9.844997
5.530000,-0.050374,-0.051688,0.053437,0.219237,-1.328108,9.773361
5.535000,-0.051266,-0.054898,0.049680,0.206843,-1.238297,9.847219
5.540000,-0.045143,-0.050734,0.050222,0.279006,-1.302675,9.841971
5.545000,-0.046412,-0.054956,0.053358,0.274648,-1.245109,9.869221
5.550000,-0.048394,-0.055914,0.048903,0.301014,-1.299330,9.820661
5.555000,-0.053293,-0.050524,0.052058,0.299488,-1.298108,9.769556
5.560000,-0.049295,-0.053863,0.056031,0.267882,-1.254453,9.804850
5.565000,-0.044182,-0.058755,0.051817,0.231978,-1.307248,9.870234
5.570000,-0.044145,-0.049092,0.049859,0.290318,-1.245540,9.814388
5.575000,-0.045763,-0.048579,0.054584,0.316029,-1.228965,9.805267
5.580000,-0.045757,-0.055412,0.047505,0.311745,-1.290913,9.821944
5.585000,-0.049442,-0.051756,0.056259,0.318904,-1.270320,9.827844
5.590000,-0.047821,-0.050288,0.049320,0.311013,-1.256085,9.789447
5.595000,-0.043382,-0.052888,0.048348,0.284649,-1.262521,9.835010
5.600000,-0.047124,-0.048343,0.053481,0.265639,-1.277696,9.854992
5.605000,-0.051897,-0.047822,0.050187,0.315086,-1.288095,9.837208
5.610000,-0.044172,-0.057066,0.046907,0.278374,-1.310637,9.778980
5.615000,-0.043664,-0.053143,0.050091,0.277175,-1.311793,9.793420
5.620000,-0.048514,-0.046388,0.056188,0.297474,-1.244368,9.830174
5.625000,-0.046144,-0.051442,0.051671,0.348064,-1.252126,9.797813
5.630000,-0.048397,-0.054039,0.052484,0.315198,-1.274257,9.782999
5.635000,-0.044500,-0.048801,0.045941,0.269108,-1.318738,9.793192
5.640000,-0.045611,-0.053465,0.052070,0.219163,-1.284715,9.782640
5.645000,-0.039732,-0.055934,0.048033,0.277283,-1.254155,9.765005
5.650000,-0.044156,-0.047807,0.052693,0.264914,-1.294258,9.803858
5.655000,-0.045395,-0.053361,0.053952,0.315210,-1.264762,9.833484
5.660000,-0.046471,-0.052703,0.057278,0.244964,-1.257101,9.854963
5.665000,-0.043784,-0.049061,0.061143,0.287793,-1.263378,9.825189
5.670000,-0.045111,-0.047612,0.054233,0.299299,-1.261159,9.792819
5.675000,-0.043428,-0.049742,0.057332,0.358337,-1.272130,9.798717
5.680000,-0.039778,-0.055815,0.049384,0.350747,-1.278796,9.852143
5.685000,-0.038223,-0.051000,0.048549,0.276442,-1.289490,9.820945
5.690000,-0.035751,-0.051085,0.054716,0.392061,-1.280309,9.875969
5.695000,-0.038632,-0.052429,0.048148,0.330194,-1.279359,9.795353
5.700000,-0.038429,-0.049138,0.051463,0.323695,-1.317497,9.801590
5.705000,-0.042423,-0.048700,0.047874,0.312555,-1.343944,9.750176
5.710000,-0.042068,-0.058328,0.047416,0.310664,-1.364409,9.802010
5.715000,-0.038685,-0.050742,0.048083,0.360165,-1.298544,9.765060
5.720000,-0.039045,-0.050095,0.051842,0.323234,-1.335027,9.777398
5.725000,-0.041135,-0.051951,0.050276,0.350635,-1.328384,9.761500
5.730000,-0.043768,-0.047241,0.056499,0.335849,-1.332777,9.790250
5.735000,-0.039761,-0.049797,0.058975,0.335534,-1.326360,9.818762
5.740000,-0.037059,-0.051010,0.049400,0.343130,-1.318386,9.800095
5.745000,-0.034596,-0.047823,0.055574,0.378768,-1.371653,9.781429
5.750000,-0.040472,-0.049395,0.052313,0.319248,-1.312868,9.771742
5.755000,-0.037821,-0.045467,0.052382,0.356736,-1.261221,9.804803
5.760000,-0.041449,-0.052194,0.050028,0.361456,-1.350609,9.828643
5.765000,-0.040997,-0.052827,0.049804,0.363341,-1.339855,9.815620
5.770000,-0.037441,-0.043344,0.057142,0.365579,-1.305510,9.807047
5.775000,-0.040680,-0.046449,0.046927,0.449039,-1.351029,9.783542
5.780000,-0.039194,-0.050625,0.045118,0.405127,-1.364064,9.766287
5.785000,-0.040334,-0.047934,0.055191,0.367357,-1.283708,9.837119
5.790000,-0.038273,-0.052060,0.054287,0.363560,-1.329222,9.817227
5.795000,-0.037131,-0.049902,0.048644,0.406556,-1.323517,9.818186
5.800000,-0.039427,-0.046830,0.048550,0.342764,-1.297783,9.858219
5.805000,-0.034728,-0.054457,0.053115,0.335009,-1.323968,9.841006
5.810000,-0.037397,-0.054077,0.050471,0.336019,-1.349324,9.783612
5.815000,-0.032290,-0.055514,0.049284,0.357511,-1.369164,9.793066
5.820000,-0.035440,-0.043054,0.051249,0.314323,-1.354493,9.783827
5.825000,-0.033477,-0.049289,0.055065,0.330972,-1.420180,9.812707
5.830000,-0.032454,-0.050370,0.052784,0.367794,-1.291058,9.825955
5.835000,-0.034965,-0.047807,0.056046,0.383054,-1.347367,9.798938
5.840000,-0.034089,-0.041058,0.050430,0.402923,-1.383255,9.805226
5.845000,-0.040343,-0.043486,0.054180,0.384353,-1.393232,9.860712
5.850000,-0.029481,-0.051457,0.049109,0.363460,-1.375558,9.783832
5.855000,-0.034144,-0.051649,0.054148,0.382506,-1.360540,9.836570
5.860000,-0.030929,-0.047738,0.049934,0.399300,-1.369647,9.826787
5.865000,-0.038221,-0.049261,0.049824,0.381290,-1.361307,9.780624
5.870000,-0.037927,-0.047869,0.053864,0.324573,-1.359885,9.798989
5.875000,-0.030853,-0.049467,0.051157,0.410667,-1.378026,9.784863
5.880000,-0.034552,-0.051664,0.052843,0.406622,-1.364249,9.766859
5.885000,-0.032258,-0.046946,0.049431,0.352253,-1.354187,9.792593
5.890000,-0.030988,-0.051071,0.043531,0.407835,-1.375025,9.755906
5.895000,-0.034424,-0.048621,0.048609,0.419791,-1.422373,9.733577
5.900000,-0.039315,-0.046310,0.041468,0.407441,-1.361955,9.787832
5.905000,-0.032083,-0.044911,0.049488,0.402958,-1.315430,9.780719
5.910000,-0.032941,-0.044930,0.051883,0.403692,-1.367871,9.771907
5.915000,-0.031681,-0.044085,0.051662,0.371967,-1.403725,9.744151
5.920000,-0.030774,-0.043859,0.049081,0.452624,-1.391897,9.743051
5.925000,-0.033223,-0.046091,0.051224,0.409330,-1.420643,9.802810
5.930000,-0.032835,-0.050892,0.051550,0.417030,-1.352260,9.780217
5.935000,-0.023531,-0.043566,0.053303,0.367351,-1.444909,9.789636
5.940000,-0.028025,-0.042930,0.048034,0.467740,-1.419852,9.766775
5.945000,-0.032543,-0.044499,0.049639,0.454622,-1.404398,9.836478
5.950000,-0.029680,-0.048215,0.050739,0.443243,-1.400810,9.764750
5.955000,-0.026857,-0.042749,0.054864,0.382955,-1.373647,9.807732
5.960000,-0.034203,-0.044982,0.052751,0.479154,-1.419212,9.786439
5.965000,-0.021509,-0.048896,0.049246,0.409868,-1.431792,9.814014
5.970000,-0.021719,-0.044234,0.053561,0.384804,-1.395548,9.764288
5.975000,-0.032425,-0.051085,0.052765,0.397129,-1.368694,9.804580
5.980000,-0.027531,-0.049271,0.055044,0.453583,-1.341466,9.827441
5.985000,-0.026922,-0.041595,0.051684,0.423676,-1.411100,9.790285
5.990000,-0.027628,-0.050999,0.051504,0.472120,-1.407979,9.857120
5.995000,-0.030049,-0.044386,0.054413,0.471890,-1.375882,9.792908
6.000000,-0.025675,-0.049520,0.049678,0.408382,-1.377306,9.835153
6.005000,-0.028624,-0.045336,0.056345,0.436208,-1.385634,9.793202
6.010000,-0.025907,-0.050444,0.053318,0.458881,-1.452035,9.844321
6.015000,-0.026953,-0.049467,0.050314,0.465233,-1.417030,9.804095
6.020000,-0.026874,-0.042699,0.050454,0.458745,-1.373413,9.793881
6.025000,-0.024067,-0.045118,0.051678,0.489586,-1.413021,9.799513
6.030000,-0.032614,-0.045360,0.052997,0.461168,-1.424669,9.787884
6.035000,-0.026134,-0.042961,0.052335,0.425883,-1.333777,9.754092
6.040000,-0.022411,-0.045932,0.053378,0.500738,-1.370112,9.791285
6.045000,-0.024014,-0.045836,0.049578,0.485074,-1.408464,9.797454
6.050000,-0.020372,-0.043240,0.047548,0.424942,-1.442580,9.754140
6.055000,-0.026952,-0.043264,0.047806,0.440646,-1.459132,9.754131
6.060000,-0.024907,-0.044321,0.054092,0.454394,-1.358448,9.726137
6.065000,-0.020837,-0.045440,0.053650,0.496783,-1.388619,9.757791
6.070000,-0.022872,-0.041702,0.048462,0.480590,-1.377526,9.787832
6.075000,-0.026591,-0.046344,0.049909,0.490127,-1.411874,9.757478
6.080000,-0.019492,-0.042140,0.053812,0.424152,-1.445436,9.799899
6.085000,-0.022306,-0.051420,0.051101,0.442088,-1.380024,9.805392
6.090000,-0.021228,-0.047528,0.053162,0.405670,-1.439384,9.728845
6.095000,-0.030632,-0.046833,0.050989,0.456730,-1.377671,9.722461
6.100000,-0.024301,-0.046666,0.051245,0.450219,-1.395970,9.783827
6.105000,-0.019969,-0.051243,0.050418,0.446336,-1.412791,9.755295
6.110000,-0.019140,-0.045786,0.053222,0.483752,-1.419013,9.784872
6.115000,-0.023724,-0.047833,0.046186,0.503520,-1.439286,9.787805
6.120000,-0.022513,-0.042795,0.051757,0.486959,-1.372080,9.741290
6.125000,-0.025425,-0.039827,0.047452,0.464285,-1.341073,9.807717
6.130000,-0.028731,-0.040987,0.051210,0.418204,-1.384170,9.812038
6.135000,-0.023224,-0.042135,0.052315,0.454473,-1.426820,9.803238
6.140000,-0.017884,-0.043766,0.046404,0.456639,-1.404907,9.755714
6.145000,-0.015450,-0.043447,0.046046,0.388422,-1.415936,9.798616
6.150000,-0.020115,-0.043840,0.047917,0.467371,-1.448879,9.809298
6.155000,-0.020412,-0.042013,0.051412,0.559069,-1.425395,9.777861
6.160000,-0.015247,-0.039399,0.054027,0.488467,-1.464057,9.759440
6.165000,-0.026352,-0.047614,0.056575,0.519100,-1.435153,9.758722
6.170000,-0.021157,-0.045393,0.051222,0.519002,-1.424552,9.815560
6.175000,-0.025518,-0.039604,0.055814,0.515539,-1.442512,9.764779
6.180000,-0.021639,-0.045256,0.044775,0.504767,-1.433880,9.789771
6.185000,-0.015578,-0.041639,0.047521,0.470987,-1.416182,9.746784
6.190000,-0.015835,-0.040354,0.050004,0.504463,-1.428955,9.796236
6.195000,-0.018188,-0.042479,0.057009,0.473977,-1.429548,9.795392
6.200000,-0.018013,-0.041166,0.050659,0.517035,-1.402458,9.836259
6.205000,-0.013792,-0.039560,0.053279,0.513620,-1.367720,9.758097
6.210000,-0.016400,-0.039774,0.050214,0.490001,-1.437407,9.775226
6.215000,-0.019152,-0.043754,0.049179,0.486466,-1.398471,9.759461
6.220000,-0.013555,-0.046227,0.050406,0.558716,-1.443361,9.827669
6.225000,-0.010047,-0.040312,0.049608,0.534134,-1.488292,9.782137
6.230000,-0.011870,-0.040307,0.049298,0.525520,-1.437206,9.763301
6.235000,-0.013174,-0.041756,0.049124,0.469763,-1.386287,9.743626
6.240000,-0.016651,-0.040703,0.049750,0.475666,-1.441291,9.768795
6.245000,-0.010464,-0.043501,0.047194,0.524575,-1.441793,9.747740
6.250000,-0.012306,-0.041494,0.049937,0.552784,-1.424198,9.762369
6.255000,-0.018156,-0.044638,0.048624,0.506836,-1.465199,9.763190
6.260000,-0.014285,-0.045753,0.048148,0.475995,-1.475540,9.807723
6.265000,-0.011211,-0.046970,0.046486,0.520616,-1.441625,9.773790
6.270000,-0.012788,-0.039478,0.045217,0.523256,-1.418069,9.735700
6.275000,-0.011816,-0.037057,0.048353,0.536166,-1.429308,9.856314
6.280000,-0.009111,-0.041300,0.044402,0.543569,-1.435438,9.827752
6.285000,-0.006388,-0.035914,0.051172,0.493371,-1.395681,9.774304
6.290000,-0.007386,-0.041119,0.045100,0.478409,-1.460826,9.803315
6.295000,-0.015639,-0.040212,0.047815,0.574601,-1.425890,9.745328
6.300000,-0.010523,-0.036179,0.051001,0.543387,-1.474188,9.803882
6.305000,-0.010138,-0.037034,0.049107,0.519784,-1.385519,9.739761
6.310000,-0.012750,-0.039192,0.043081,0.535424,-1.388084,9.739991
6.315000,-0.014709,-0.040980,0.053592,0.523505,-1.478265,9.801487
6.320000,-0.010306,-0.039052,0.058119,0.533297,-1.481632,9.800048
6.325000,-0.005389,-0.039149,0.051693,0.555413,-1.410154,9.828630
6.330000,-0.014142,-0.039969,0.051343,0.578787,-1.477122,9.776648
6.335000,-0.009797,-0.042215,0.054038,0.567951,-1.390807,9.805548
6.340000,-0.007718,-0.042319,0.045126,0.553807,-1.428179,9.743771
6.345000,-0.008255,-0.040653,0.051000,0.617277,-1.423893,9.790970
6.350000,-0.006321,-0.033631,0.048775,0.519439,-1.440424,9.741738
6.355000,-0.005241,-0.038598,0.045355,0.568938,-1.476019,9.747266
6.360000,-0.005859,-0.043693,0.052145,0.521858,-1.491503,9.788518
6.365000,-0.005078,-0.039852,0.050798,0.519037,-1.408011,9.830543
6.370000,-0.010186,-0.041753,0.048221,0.598052,-1.453491,9.770389
6.375000,-0.008202,-0.040556,0.047721,0.576911,-1.441143,9.831990
6.380000,-0.008117,-0.033580,0.052719,0.530809,-1.395242,9.796133
6.385000,-0.006893,-0.038946,0.052304,0.562821,-1.407726,9.789624
6.390000,-0.001766,-0.039448,0.047068,0.603034,-1.447573,9.812619
6.395000,-0.005800,-0.040127,0.051994,0.584122,-1.382959,9.741566
6.400000,0.001276,-0.038607,0.049141,0.566634,-1.413121,9.759754
6.405000,-0.005694,-0.038994,0.054081,0.522281,-1.456908,9.764527
6.410000,-0.005043,-0.041542,0.047430,0.552051,-1.404937,9.784388
6.415000,-0.001340,-0.039401,0.046239,0.592248,-1.444696,9.733616
6.420000,-0.006069,-0.037459,0.043843,0.558137,-1.393724,9.756167
6.425000,-0.001603,-0.033197,0.050696,0.573311,-1.426448,9.837606
6.430000,-0.002489,-0.035484,0.052600,0.562037,-1.399364,9.712162
6.435000,-0.001815,-0.035350,0.050184,0.555783,-1.430968,9.812497
6.440000,-0.001010,-0.035731,0.049315,0.542257,-1.448519,9.761348
6.445000,-0.001287,-0.033448,0.042879,0.550287,-1.420708,9.827035
6.450000,-0.006423,-0.038190,0.053551,0.597550,-1.487293,9.710154
6.455000,-0.004165,-0.041550,0.049352,0.614463,-1.427111,9.777235
6.460000,-0.005502,-0.039103,0.051592,0.598096,-1.394188,9.786789
6.465000,0.002486,-0.041326,0.053246,0.507995,-1.406306,9.835902
6.470000,-0.002255,-0.035090,0.049197,0.552479,-1.427958,9.782660
6.475000,-0.000380,-0.034646,0.049017,0.537402,-1.380642,9.768680
6.480000,-0.004239,-0.038769,0.047185,0.578122,-1.420686,9.749128
6.485000,-0.005922,-0.037960,0.054520,0.593070,-1.387613,9.735822
6.490000,0.000379,-0.036538,0.056649,0.639709,-1.472860,9.756196
6.495000,0.004001,-0.039240,0.042700,0.587426,-1.400737,9.771915
6.500000,-0.000167,-0.031891,0.050456,0.571958,-1.433426,9.757664
6.505000,0.003554,-0.034599,0.044707,0.610332,-1.458764,9.757331
6.510000,0.005460,-0.040565,0.047380,0.582308,-1.456566,9.805679
6.515000,-0.000114,-0.035383,0.049019,0.623376,-1.407163,9.804184
6.520000,-0.001336,-0.036323,0.052279,0.615980,-1.399446,9.775681
6.525000,-0.000158,-0.034544,0.048954,0.612508,-1.440072,9.742071
6.530000,0.001654,-0.032225,0.053312,0.577239,-1.400949,9.781795
6.535000,-0.002787,-0.036742,0.052079,0.630089,-1.446698,9.766025
6.540000,0.000008,-0.038880,0.047856,0.623828,-1.443688,9.762612
6.545000,-0.001397,-0.035623,0.043161,0.605060,-1.354476,9.767521
6.550000,0.002078,-0.031316,0.047391,0.644792,-1.413331,9.760869
6.555000,0.007716,-0.036895,0.050807,0.587671,-1.441219,9.817930
6.560000,0.003778,-0.035493,0.055730,0.629818,-1.352662,9.806854
6.565000,0.007204,-0.036756,0.053525,0.592270,-1.385698,9.775601
6.570000,0.008694,-0.031265,0.046372,0.640987,-1.425310,9.788916
6.575000,0.005948,-0.034712,0.049169,0.631068,-1.385702,9.801278
6.580000,0.002223,-0.033381,0.052296,0.695223,-1.420036,9.766871
6.585000,0.010284,-0.035407,0.048270,0.662417,-1.385375,9.792253
6.590000,0.006212,-0.037196,0.049655,0.614531,-1.462323,9.764664
6.595000,0.005881,-0.031981,0.048651,0.641097,-1.422413,9.813912
6.600000,0.013756,-0.035952,0.053170,0.645288,-1.378324,9.764422
6.605000,0.007336,-0.032184,0.050149,0.666147,-1.338313,9.754256
6.610000,0.003559,-0.036101,0.053902,0.637333,-1.403119,9.726479
6.615000,0.006672,-0.034082,0.054631,0.625552,-1.372063,9.757445
6.620000,0.010100,-0.033645,0.051747,0.654560,-1.446873,9.809829
6.625000,0.013723,-0.027928,0.050063,0.656712,-1.394886,9.761586
6.630000,0.005946,-0.034782,0.050175,0.628312,-1.370160,9.751828
6.635000,0.011257,-0.037582,0.048270,0.621130,-1.377539,9.823149
6.640000,0.005496,-0.035414,0.048273,0.529439,-1.370668,9.768354
6.645000,0.014830,-0.035393,0.048969,0.584138,-1.472046,9.747917
6.650000,0.013308,-0.036139,0.056210,0.656355,-1.411863,9.754464
6.655000,0.013442,-0.033965,0.048556,0.685121,-1.367694,9.773145
6.660000,0.009984,-0.027285,0.052416,0.670119,-1.441617,9.789989
6.665000,0.013274,-0.030704,0.051154,0.594255,-1.398092,9.690946
6.670000,0.013092,-0.033375,0.049999,0.667739,-1.366004,9.767101
6.675000,0.013287,-0.034235,0.052240,0.660417,-1.396141,9.737376
6.680000,0.009800,-0.031447,0.049305,0.616548,-1.394758,9.789005
6.685000,0.008848,-0.034592,0.046419,0.642378,-1.368933,9.808353
6.690000,0.012946,-0.032810,0.045777,0.658562,-1.385976,9.761981
6.695000,0.017061,-0.033668,0.051220,0.610261,-1.379766,9.786174
6.700000,0.009003,-0.023964,0.053114,0.596639,-1.383104,9.788557
6.705000,0.015970,-0.032446,0.047077,0.624106,-1.407275,9.763684
6.710000,0.011711,-0.030060,0.046594,0.639800,-1.381077,9.793094
6.715000,0.016063,-0.027151,0.049351,0.641617,-1.388703,9.738865
6.720000,0.011133,-0.035728,0.046212,0.650755,-1.337555,9.796706
6.725000,0.014295,-0.032924,0.052533,0.666307,-1.390087,9.797903
6.730000,0.010923,-0.029909,0.051635,0.602379,-1.391580,9.763527
6.735000,0.009727,-0.030205,0.048573,0.629550,-1.405206,9.807940
6.740000,0.011758,-0.026719,0.048755,0.670694,-1.396374,9.800892
6.745000,0.013286,-0.027420,0.052765,0.625665,-1.358555,9.750441
6.750000,0.018814,-0.027804,0.047613,0.660187,-1.370010,9.731681
6.755000,0.021359,-0.030101,0.051788,0.696558,-1.408560,9.733787
6.760000,0.012539,-0.027515,0.048730,0.688902,-1.347139,9.769851
6.765000,0.021049,-0.028530,0.046939,0.685444,-1.386836,9.788500
6.770000,0.014937,-0.026671,0.049302,0.659272,-1.386639,9.829652
6.775000,0.016891,-0.024553,0.040542,0.665798,-1.377061,9.783786
6.780000,0.020096,-0.032384,0.056446,0.695660,-1.359926,9.772396
6.785000,0.018471,-0.031827,0.048474,0.654450,-1.385260,9.795638
6.790000,0.016884,-0.027605,0.052512,0.688651,-1.326479,9.767046
6.795000,0.019620,-0.030817,0.046306,0.675642,-1.357554,9.764474
6.800000,0.020406,-0.030634,0.045262,0.631541,-1.365483,9.787560
6.805000,0.022309,-0.027281,0.047654,0.645074,-1.420844,9.765543
6.810000,0.023751,-0.029040,0.051396,0.686317,-1.339095,9.805539
6.815000,0.023315,-0.028361,0.043302,0.703118,-1.351517,9.780230
6.820000,0.020634,-0.029481,0.045141,0.657635,-1.319709,9.774394
6.825000,0.020670,-0.028279,0.052524,0.650244,-1.345993,9.762017
6.830000,0.023472,-0.030638,0.055098,0.694778,-1.313218,9.794554
6.835000,0.016868,-0.026641,0.051448,0.702239,-1.351001,9.814861
6.840000,0.019239,-0.027885,0.052195,0.661531,-1.392262,9.841645
6.845000,0.023264,-0.031751,0.051428,0.679937,-1.357548,9.764305
6.850000,0.022114,-0.024617,0.048817,0.687564,-1.329149,9.794237
6.855000,0.019538,-0.030120,0.048357,0.650749,-1.398024,9.783491
6.860000,0.025308,-0.026466,0.046513,0.594919,-1.345367,9.775649
6.865000,0.017610,-0.022779,0.051829,0.689070,-1.305259,9.757658
6.870000,0.024365,-0.027156,0.049696,0.762742,-1.319713,9.731425
6.875000,0.021827,-0.024105,0.044782,0.652997,-1.370552,9.764943
6.880000,0.026461,-0.024548,0.049972,0.697812,-1.302854,9.731221
6.885000,0.023674,-0.025468,0.048517,0.668299,-1.302744,9.773434
6.890000,0.027386,-0.023056,0.047185,0.685413,-1.348406,9.768275
6.895000,0.022572,-0.030257,0.042577,0.641101,-1.345747,9.795499
6.900000,0.020852,-0.026728,0.050164,0.678432,-1.380218,9.756247
6.905000,0.025665,-0.026290,0.053489,0.751579,-1.280334,9.769173
6.910000,0.030823,-0.029215,0.050379,0.707352,-1.335519,9.767297
6.915000,0.024961,-0.023634,0.049916,0.703396,-1.296671,9.723868
6.920000,0.025529,-0.026157,0.043863,0.685119,-1.337512,9.744669
6.925000,0.025357,-0.028395,0.047316,0.713623,-1.354145,9.732551
6.930000,0.028188,-0.022988,0.048850,0.664319,-1.385628,9.749795
6.935000,0.029286,-0.025767,0.053412,0.674825,-1.354680,9.715708
6.940000,0.019505,-0.033733,0.043540,0.739100,-1.300119,9.769868
6.945000,0.026823,-0.022112,0.051893,0.669601,-1.333223,9.743264
6.950000,0.025971,-0.021815,0.048890,0.684785,-1.349003,9.725814
6.955000,0.031901,-0.027652,0.047517,0.731157,-1.268730,9.761828
6.960000,0.031101,-0.017131,0.054236,0.686004,-1.280086,9.752983
6.965000,0.027649,-0.023688,0.046791,0.658188,-1.327681,9.805568
6.970000,0.030522,-0.023187,0.048497,0.713411,-1.313006,9.768024
6.975000,0.025790,-0.027254,0.047093,0.725818,-1.289502,9.804378
6.980000,0.020167,-0.024277,0.047285,0.614396,-1.328463,9.790159
6.985000,0.028831,-0.025075,0.048672,0.714597,-1.320124,9.760489
6.990000,0.026841,-0.020247,0.050494,0.669593,-1.342669,9.795639
6.995000,0.030386,-0.028024,0.044078,0.651029,-1.266327,9.811327
7.000000,0.032793,-0.025680,0.046614,0.685138,-1.374117,9.804752
7.005000,0.033206,-0.025461,0.046321,0.731649,-1.312028,9.786327
7.010000,0.026593,-0.018341,0.047508,0.630737,-1.273524,9.815279
7.015000,0.029465,-0.017686,0.053706,0.728867,-1.294508,9.806034
7.020000,0.031692,-0.020980,0.048093,0.706389,-1.289712,9.808039
7.025000,0.030474,-0.025860,0.052941,0.689646,-1.237326,9.771695
7.030000,0.029964,-0.025482,0.050073,0.711599,-1.307002,9.808107
7.035000,0.032783,-0.022242,0.051442,0.750120,-1.251984,9.776939
7.040000,0.032964,-0.018035,0.044843,0.747211,-1.252164,9.759164
7.045000,0.027911,-0.021661,0.048159,0.732674,-1.340978,9.807616
7.050000,0.037993,-0.025296,0.046097,0.768839,-1.255733,9.782649
7.055000,0.036491,-0.023397,0.047295,0.764974,-1.287058,9.795296
7.060000,0.031817,-0.028157,0.051771,0.748233,-1.300225,9.845637
7.065000,0.039194,-0.023987,0.048588,0.738013,-1.259662,9.754958
7.070000,0.034828,-0.021123,0.041874,0.720101,-1.264289,9.750358
7.075000,0.033732,-0.019522,0.046761,0.666649,-1.314313,9.773745
7.080000,0.038685,-0.017159,0.044529,0.700496,-1.270571,9.795459
7.085000,0.033349,-0.020400,0.045566,0.679615,-1.291881,9.785157
7.090000,0.035883,-0.023497,0.046637,0.740178,-1.280518,9.756636
7.095000,0.038370,-0.022749,0.043774,0.737726,-1.217927,9.774057
7.100000,0.037509,-0.020471,0.054236,0.670566,-1.270637,9.801734
7.105000,0.036895,-0.018505,0.048874,0.738875,-1.241552,9.802365
7.110000,0.038256,-0.020156,0.050714,0.758179,-1.261039,9.754463
7.115000,0.040480,-0.023439,0.050570,0.794003,-1.234916,9.797536
7.120000,0.043855,-0.022180,0.049691,0.759851,-1.225270,9.789970
7.125000,0.030772,-0.021924,0.050314,0.737685,-1.256128,9.792908
7.130000,0.036058,-0.014206,0.049924,0.712814,-1.266564,9.794990
7.135000,0.039819,-0.019033,0.051624,0.653292,-1.235298,9.815958
7.140000,0.041873,-0.019493,0.047074,0.712789,-1.195132,9.770801
7.145000,0.037198,-0.027953,0.045049,0.713903,-1.245562,9.787132
7.150000,0.039700,-0.017648,0.049909,0.730300,-1.234387,9.817506
7.155000,0.040654,-0.024917,0.048756,0.744621,-1.214386,9.734493
7.160000,0.038741,-0.018113,0.046881,0.720784,-1.244809,9.806203
7.165000,0.036509,-0.022314,0.045324,0.798415,-1.205825,9.784389
7.170000,0.040901,-0.012043,0.049699,0.787990,-1.245460,9.747701
7.175000,0.039121,-0.018497,0.050828,0.733702,-1.186112,9.818282
7.180000,0.046217,-0.020238,0.045500,0.748105,-1.230553,9.792027
7.185000,0.038357,-0.017083,0.051969,0.761286,-1.190470,9.802477
7.190000,0.040844,-0.024261,0.046777,0.747136,-1.187218,9.731922
7.195000,0.046735,-0.018482,0.052440,0.716194,-1.170902,9.758389
7.200000,0.047730,-0.020233,0.053409,0.735672,-1.189128,9.815809
7.205000,0.043922,-0.017757,0.047395,0.762976,-1.186205,9.757968
7.210000,0.041745,-0.022190,0.049477,0.726723,-1.233677,9.748723
7.215000,0.045137,-0.020476,0.050001,0.673148,-1.181883,9.767529
7.220000,0.046518,-0.020325,0.052601,0.737915,-1.220016,9.811211
7.225000,0.045151,-0.019644,0.050098,0.710297,-1.216665,9.786996
7.230000,0.047438,-0.024114,0.044116,0.688676,-1.255920,9.810215
7.235000,0.041516,-0.020438,0.050328,0.761276,-1.171643,9.836123
7.240000,0.041463,-0.018488,0.047042,0.777201,-1.195178,9.770759
7.245000,0.044676,-0.017158,0.051440,0.773504,-1.190471,9.776564
7.250000,0.042280,-0.018323,0.055703,0.751553,-1.201970,9.823282
7.255000,0.043850,-0.024894,0.047864,0.741037,-1.141495,9.831280
7.260000,0.046949,-0.013017,0.047333,0.724370,-1.181152,9.787807
7.265000,0.045809,-0.017343,0.049567,0.762480,-1.191612,9.808232
7.270000,0.044869,-0.017846,0.048733,0.790033,-1.142276,9.808213
7.275000,0.045748,-0.021793,0.049885,0.721924,-1.173365,9.784382
7.280000,0.045327,-0.017419,0.047266,0.782002,-1.160786,9.791810
7.285000,0.047606,-0.015151,0.048685,0.731146,-1.148292,9.808402
7.290000,0.045642,-0.012547,0.045975,0.771918,-1.238565,9.799196
7.295000,0.048737,-0.019344,0.046286,0.736249,-1.194164,9.809912
7.300000,0.052345,-0.018083,0.050414,0.729399,-1.240019,9.768790
7.305000,0.047891,-0.018213,0.048427,0.775939,-1.185296,9.804808
7.310000,0.046961,-0.015524,0.052575,0.758773,-1.179825,9.795489
7.315000,0.047855,-0.015626,0.046665,0.770814,-1.091861,9.723910
7.320000,0.050893,-0.010446,0.051757,0.771297,-1.169968,9.778288
7.325000,0.051063,-0.018833,0.049577,0.783444,-1.138611,9.792420
7.330000,0.047700,-0.017112,0.054677,0.793536,-1.110728,9.784611
7.335000,0.048649,-0.011993,0.051280,0.726615,-1.134117,9.787236
7.340000,0.044925,-0.014616,0.049577,0.743387,-1.155001,9.845999
7.345000,0.048591,-0.014919,0.047479,0.731504,-1.101734,9.813352
7.350000,0.047381,-0.015103,0.046874,0.740585,-1.105777,9.772031
7.355000,0.048685,-0.013795,0.048113,0.769255,-1.100146,9.802376
7.360000,0.055003,-0.014414,0.049875,0.796672,-1.167135,9.759615
7.365000,0.049645,-0.013032,0.051278,0.729965,-1.110501,9.780743
7.370000,0.047533,-0.015120,0.048851,0.731172,-1.097388,9.720366
7.375000,0.051315,-0.011383,0.049444,0.744795,-1.154564,9.777806
7.380000,0.049890,-0.018809,0.049631,0.782475,-1.127100,9.796640
7.385000,0.053998,-0.010078,0.045458,0.790950,-1.097232,9.796944
7.390000,0.058175,-0.013828,0.042154,0.786559,-1.110079,9.792029
7.395000,0.048948,-0.013040,0.053134,0.795212,-1.101212,9.789189
7.400000,0.055628,-0.010750,0.053565,0.757707,-1.085463,9.798916
7.405000,0.053158,-0.013589,0.050427,0.804078,-1.105870,9.824796
7.410000,0.050988,-0.008579,0.050319,0.739749,-1.147310,9.785164
7.415000,0.056889,-0.016220,0.049292,0.755098,-1.088719,9.808074
7.420000,0.052430,-0.010452,0.050351,0.747923,-1.035571,9.797306
7.425000,0.050670,-0.008152,0.053360,0.784799,-1.011691,9.772438
7.430000,0.056871,-0.016320,0.053562,0.786773,-1.048879,9.770322
7.435000,0.053985,-0.012168,0.048479,0.769957,-1.048108,9.845155
7.440000,0.058634,-0.009734,0.045596,0.764950,-1.116320,9.810022
7.445000,0.059997,-0.009904,0.050498,0.774603,-1.083146,9.859262
7.450000,0.058795,-0.013103,0.047788,0.751749,-1.036334,9.790587
7.455000,0.053810,-0.005380,0.047843,0.806005,-1.093626,9.790385
7.460000,0.054880,-0.008487,0.047599,0.810703,-1.071630,9.791276
7.465000,0.058738,-0.014696,0.048864,0.757040,-1.053827,9.817344
7.470000,0.056835,-0.007710,0.051268,0.754901,-1.042310,9.790809
7.475000,0.053050,-0.012568,0.050296,0.712839,-1.036755,9.835730
7.480000,0.057527,-0.014088,0.052749,0.780111,-1.004511,9.783479
7.485000,0.061066,-0.013345,0.052261,0.727532,-1.022111,9.822019
7.490000,0.055167,-0.007942,0.048125,0.757652,-1.036235,9.806047
7.495000,0.063385,-0.005017,0.052418,0.751413,-1.044919,9.757604
7.500000,0.053699,-0.008573,0.049216,0.709411,-1.003426,9.821757
7.505000,0.060660,-0.009327,0.043698,0.800366,-1.011574,9.833566
7.510000,0.058712,-0.012905,0.050812,0.791193,-1.011789,9.796676
7.515000,0.057431,-0.015983,0.045296,0.773557,-1.095862,9.754785
7.520000,0.057762,-0.007720,0.051788,0.786061,-1.000823,9.843685
7.525000,0.065987,-0.008854,0.047105,0.780570,-1.054770,9.796498
7.530000,0.061620,-0.006194,0.051448,0.782982,-0.975968,9.844579
7.535000,0.061084,-0.011364,0.047341,0.779570,-1.029870,9.823915
7.540000,0.066497,-0.010922,0.055522,0.748025,-1.000315,9.803399
7.545000,0.060277,-0.007840,0.045869,0.769966,-0.931465,9.772632
7.550000,0.062202,-0.008800,0.051351,0.786441,-1.032935,9.779343
7.555000,0.063239,-0.005150,0.051654,0.775725,-0.986074,9.823760
7.560000,0.057714,-0.006193,0.043965,0.823076,-1.001641,9.830544
7.565000,0.062757,-0.013184,0.048808,0.758689,-0.978511,9.764662
7.570000,0.063787,-0.005452,0.047778,0.862861,-1.020754,9.786180
7.575000,0.061221,-0.009137,0.046667,0.813955,-0.977197,9.783972
7.580000,0.060055,-0.016230,0.053997,0.749324,-0.973907,9.812348
7.585000,0.060286,-0.010230,0.045082,0.708650,-0.948047,9.819625
7.590000,0.059639,-0.007637,0.047519,0.765128,-0.978227,9.838622
7.595000,0.062876,-0.011301,0.050991,0.757344,-0.948922,9.823620
7.600000,0.052957,-0.007105,0.046328,0.774587,-0.907191,9.820536
7.605000,0.062497,-0.013882,0.053398,0.777193,-0.929608,9.807343
7.610000,0.061533,-0.012288,0.049839,0.751011,-0.921885,9.851116
7.615000,0.059921,-0.011261,0.044911,0.758151,-0.956683,9.780757
7.620000,0.057127,-0.006924,0.043996,0.745366,-0.955899,9.765043
7.625000,0.064016,-0.005325,0.050011,0.808107,-0.911608,9.804159
7.630000,0.062083,-0.010423,0.051492,0.736292,-0.914821,9.782724
7.635000,0.063864,-0.005979,0.043406,0.804153,-0.959122,9.779142
7.640000,0.062776,-0.006590,0.050975,0.813545,-0.925613,9.794948
7.645000,0.063866,-0.006543,0.045349,0.767103,-0.935202,9.706260
7.650000,0.063990,-0.008799,0.052220,0.799729,-0.980123,9.818885
7.655000,0.058193,-0.001815,0.045502,0.778223,-0.892745,9.789229
7.660000,0.063847,-0.009551,0.051986,0.840712,-0.919904,9.791011
7.665000,0.065716,-0.006717,0.049677,0.789764,-0.900957,9.818940
7.670000,0.063728,-0.010791,0.045634,0.781554,-0.884351,9.793885
7.675000,0.067431,-0.008291,0.046870,0.779832,-0.866532,9.804622
7.680000,0.067575,-0.006348,0.047628,0.825085,-0.881016,9.742314
7.685000,0.069405,-0.005371,0.044913,0.779774,-0.911691,9.805115
7.690000,0.069171,-0.007991,0.048813,0.796291,-0.908602,9.791400
7.695000,0.069992,-0.003044,0.051242,0.784136,-0.859644,9.861759
7.700000,0.065608,-0.006602,0.052176,0.798179,-0.852228,9.830587
7.705000,0.067775,-0.004560,0.047712,0.797955,-0.890570,9.792368
7.710000,0.071841,-0.005818,0.050176,0.746451,-0.891510,9.796883
7.715000,0.065241,-0.004562,0.050947,0.787200,-0.836374,9.818074
7.720000,0.066760,-0.002499,0.046611,0.747668,-0.859112,9.776991
7.725000,0.066529,-0.008848,0.049817,0.745768,-0.849042,9.813937
7.730000,0.064690,-0.008352,0.047161,0.803748,-0.850022,9.885550
7.735000,0.075279,-0.005082,0.048472,0.745453,-0.886493,9.774530
7.740000,0.069435,-0.004399,0.051422,0.798385,-0.890015,9.811663
7.745000,0.064235,-0.003289,0.048493,0.748122,-0.841530,9.830465
7.750000,0.074603,-0.005774,0.049705,0.788048,-0.796742,9.851817
7.755000,0.071542,-0.002309,0.046789,0.767308,-0.892726,9.793909
7.760000,0.069520,-0.003305,0.047612,0.841390,-0.816171,9.766219
7.765000,0.068653,-0.000930,0.049228,0.800407,-0.865253,9.816979
7.770000,0.078571,-0.003860,0.046753,0.776615,-0.845797,9.859223
7.775000,0.068643,-0.000377,0.049310,0.769248,-0.863198,9.796875
7.780000,0.072651,-0.006052,0.058595,0.814382,-0.804886,9.851220
7.785000,0.071580,0.000107,0.048284,0.828539,-0.882155,9.820890
7.790000,0.066968,-0.004975,0.051182,0.809269,-0.837127,9.800967
7.795000,0.068875,-0.002294,0.047372,0.745786,-0.828820,9.837264
7.800000,0.071490,-0.001220,0.047658,0.803676,-0.851551,9.787361
7.805000,0.069524,0.001101,0.051044,0.797345,-0.789093,9.829417
7.810000,0.079882,-0.002783,0.053569,0.792732,-0.797535,9.794165
7.815000,0.071114,0.000078,0.044676,0.776865,-0.803690,9.801138
7.820000,0.074584,0.000484,0.047712,0.805333,-0.775541,9.815240
7.825000,0.068136,0.003854,0.044821,0.818290,-0.725617,9.841433
7.830000,0.077826,-0.002628,0.048547,0.833632,-0.807490,9.790423
7.835000,0.072789,-0.000528,0.048595,0.768939,-0.760285,9.818797
7.840000,0.068775,-0.002604,0.048886,0.803128,-0.742295,9.794116
7.845000,0.069699,-0.000058,0.043749,0.783221,-0.785411,9.850738
7.850000,0.074973,0.001248,0.045410,0.738084,-0.761709,9.833501
7.855000,0.079469,-0.001631,0.043598,0.778955,-0.736592,9.812221
7.860000,0.071442,-0.001586,0.050469,0.750671,-0.801126,9.840295
7.865000,0.079758,-0.001316,0.051737,0.758311,-0.778435,9.774083
7.870000,0.075741,-0.002548,0.049726,0.815164,-0.761631,9.850833
7.875000,0.070820,0.004665,0.045407,0.777476,-0.768650,9.824768
7.880000,0.071928,0.002145,0.048645,0.877992,-0.730634,9.836845
7.885000,0.078473,-0.002190,0.045767,0.777955,-0.819559,9.836200
7.890000,0.072013,0.004318,0.043557,0.788542,-0.825352,9.746774
7.895000,0.077496,0.002256,0.045303,0.807647,-0.724646,9.884391
7.900000,0.073133,-0.000207,0.049662,0.788889,-0.658687,9.859234
7.905000,0.074998,0.005532,0.046807,0.742905,-0.702688,9.841488
7.910000,0.075509,0.002451,0.043095,0.768397,-0.721733,9.844665
7.915000,0.077226,0.002633,0.048390,0.754167,-0.729276,9.810856
7.920000,0.077490,0.003893,0.045464,0.771367,-0.716797,9.866685
7.925000,0.077816,-0.001049,0.048242,0.752558,-0.671407,9.862018
7.930000,0.079227,-0.000582,0.047631,0.763134,-0.654851,9.819379
7.935000,0.077666,0.002906,0.046183,0.803547,-0.683431,9.813332
7.940000,0.076070,-0.000311,0.050624,0.814513,-0.678565,9.850079
7.945000,0.079453,0.002895,0.047243,0.812862,-0.675244,9.843042
7.950000,0.080521,0.000130,0.042676,0.790779,-0.669326,9.832206
7.955000,0.080128,0.000986,0.049482,0.781710,-0.687885,9.814041
7.960000,0.082051,0.006958,0.045995,0.712892,-0.725700,9.839301
7.965000,0.079956,0.000913,0.046219,0.795826,-0.649415,9.821012
7.970000,0.076436,0.003449,0.049304,0.796110,-0.704305,9.861522
7.975000,0.077996,-0.000129,0.048181,0.762399,-0.651057,9.856303
7.980000,0.077288,0.010274,0.047007,0.807809,-0.679842,9.843234
7.985000,0.076160,0.003539,0.052501,0.747692,-0.700656,9.805283
7.990000,0.079206,0.005186,0.048409,0.815730,-0.658816,9.806496
7.995000,0.079634,-0.000480,0.046369,0.780499,-0.687873,9.862480
8.000000,0.080794,-0.001865,0.049957,0.775958,-0.657881,9.832083
8.005000,0.078307,0.007222,0.045160,0.746711,-0.665939,9.834340
8.010000,0.072816,-0.000228,0.043756,0.718009,-0.646160,9.816742
8.015000,0.080578,0.002900,0.044247,0.757692,-0.605938,9.800590
8.020000,0.082114,0.004138,0.045752,0.788548,-0.652660,9.863488
8.025000,0.075091,0.003124,0.044869,0.796740,-0.639614,9.814622
8.030000,0.081456,0.001468,0.051372,0.777118,-0.621380,9.825138
8.035000,0.074416,0.002803,0.042149,0.804667,-0.690027,9.799941
8.040000,0.081540,0.009053,0.049874,0.777901,-0.622206,9.848139
8.045000,0.081735,-0.000477,0.052360,0.810499,-0.588400,9.832631
8.050000,0.079602,0.006681,0.046637,0.786193,-0.580518,9.853056
8.055000,0.082529,0.005665,0.044171,0.719981,-0.524308,9.829116
8.060000,0.077337,0.006528,0.045911,0.800505,-0.583105,9.800609
8.065000,0.078556,0.001122,0.049660,0.751962,-0.586691,9.857396
8.070000,0.081388,0.004144,0.049214,0.787685,-0.635341,9.853445
8.075000,0.078377,0.008544,0.049233,0.768762,-0.550930,9.798853
8.080000,0.086702,0.000143,0.047968,0.787155,-0.627105,9.885877
8.085000,0.082932,0.000839,0.047019,0.796978,-0.550466,9.857293
8.090000,0.077621,0.004891,0.052592,0.800393,-0.570371,9.845565
8.095000,0.080104,0.004677,0.047265,0.772559,-0.526248,9.816963
8.100000,0.085765,0.008014,0.050840,0.742952,-0.555051,9.853810
8.105000,0.085577,0.005250,0.042458,0.828963,-0.547828,9.847844
8.110000,0.086052,0.003795,0.052542,0.752931,-0.514597,9.821724
8.115000,0.082594,0.002479,0.046327,0.811453,-0.570625,9.845085
8.120000,0.083368,0.002317,0.044295,0.785210,-0.568267,9.794603
8.125000,0.088068,0.000130,0.046663,0.752987,-0.534768,9.886659
8.130000,0.083765,0.007172,0.049419,0.780852,-0.485870,9.856228
8.135000,0.085660,0.002286,0.049736,0.755067,-0.543903,9.823078
8.140000,0.087462,0.008595,0.049319,0.789211,-0.483489,9.836449
8.145000,0.086395,0.008613,0.048539,0.793346,-0.501123,9.862022
8.150000,0.083870,0.002620,0.046178,0.784598,-0.500153,9.840946
8.155000,0.086288,0.005579,0.046370,0.793778,-0.490879,9.846156
8.160000,0.086131,0.005183,0.044327,0.741197,-0.440721,9.872381
8.165000,0.082959,0.008487,0.048704,0.743651,-0.491401,9.869368
8.170000,0.081588,0.011005,0.047233,0.771550,-0.542377,9.886875
8.175000,0.082702,0.003781,0.044525,0.795974,-0.562935,9.874298
8.180000,0.077405,0.007034,0.045106,0.828899,-0.453517,9.840345
8.185000,0.087059,0.006439,0.050586,0.783963,-0.460471,9.844285
8.190000,0.087930,0.008593,0.047190,0.832383,-0.474280,9.886294
8.195000,0.083877,0.006759,0.048396,0.757942,-0.476067,9.760348
8.200000,0.083867,0.006608,0.053272,0.782738,-0.467141,9.843011
8.205000,0.082770,0.009331,0.048208,0.802105,-0.481351,9.854586
8.210000,0.084692,0.011176,0.047677,0.738474,-0.430391,9.791877
8.215000,0.086052,0.010998,0.046629,0.745611,-0.464533,9.825876
8.220000,0.088873,0.010694,0.043070,0.801295,-0.420544,9.846459
8.225000,0.080243,0.011669,0.047925,0.800614,-0.509763,9.821164
8.230000,0.086997,0.006563,0.054358,0.735167,-0.418656,9.880483
8.235000,0.092116,0.011513,0.048468,0.756736,-0.439309,9.776744
8.240000,0.083746,0.008559,0.046295,0.802530,-0.410259,9.811937
8.245000,0.090074,0.010617,0.040985,0.711828,-0.434101,9.875526
8.250000,0.087819,0.011470,0.044036,0.773584,-0.440593,9.849666
8.255000,0.088782,0.005167,0.041167,0.707075,-0.410882,9.871947
8.260000,0.087877,0.010394,0.046834,0.748457,-0.379221,9.860614
8.265000,0.091496,0.015251,0.047110,0.741764,-0.401509,9.843645
8.270000,0.085004,0.005983,0.048066,0.766655,-0.395343,9.817364
8.275000,0.086091,0.010013,0.044425,0.752460,-0.466135,9.872635
8.280000,0.088010,0.011533,0.046826,0.749778,-0.350214,9.860820
8.285000,0.089573,0.010338,0.047000,0.788730,-0.388351,9.843276
8.290000,0.083400,0.012076,0.047669,0.791837,-0.429317,9.851330
8.295000,0.088086,0.008349,0.045091,0.755238,-0.389023,9.866764
8.300000,0.089043,0.012854,0.048360,0.758557,-0.379918,9.817806
8.305000,0.089879,0.007740,0.048599,0.795580,-0.360557,9.815937
8.310000,0.089956,0.010667,0.049101,0.747160,-0.346545,9.808953
8.315000,0.090790,0.012381,0.048559,0.750933,-0.335449,9.835306
8.320000,0.086822,0.008828,0.044841,0.753416,-0.302559,9.846714
8.325000,0.089374,0.013040,0.048146,0.753120,-0.350350,9.885685
8.330000,0.087851,0.010480,0.042488,0.797373,-0.325529,9.805642
8.335000,0.085962,0.010499,0.051303,0.735066,-0.262565,9.847026
8.340000,0.086669,0.008572,0.048907,0.720924,-0.338956,9.865125
8.345000,0.085467,0.012418,0.042665,0.792438,-0.351489,9.862710
8.350000,0.093772,0.014064,0.045901,0.763381,-0.346800,9.843955
8.355000,0.092781,0.014493,0.043042,0.805973,-0.343749,9.811722
8.360000,0.090020,0.015244,0.047204,0.697837,-0.295330,9.822016
8.365000,0.090103,0.014685,0.050644,0.757759,-0.309971,9.847488
8.370000,0.092421,0.008272,0.043780,0.699610,-0.260944,9.848099
8.375000,0.089031,0.016123,0.044318,0.760105,-0.270186,9.833928
8.380000,0.093473,0.016074,0.045388,0.761647,-0.275924,9.830263
8.385000,0.086472,0.013866,0.044219,0.741432,-0.298110,9.818044
8.390000,0.089085,0.007138,0.048912,0.757447,-0.303388,9.826815
8.395000,0.092249,0.013153,0.046298,0.710484,-0.310468,9.863630
8.400000,0.091078,0.019582,0.044231,0.776873,-0.314444,9.799644
8.405000,0.089149,0.011076,0.043350,0.764481,-0.269924,9.844633
8.410000,0.094678,0.014443,0.041680,0.783816,-0.242176,9.829964
8.415000,0.093357,0.015837,0.044118,0.747674,-0.230758,9.803331
8.420000,0.090303,0.010003,0.041347,0.766470,-0.170918,9.928457
8.425000,0.098009,0.013740,0.040782,0.812277,-0.272877,9.900099
8.430000,0.090865,0.013996,0.046382,0.763358,-0.230686,9.789751
8.435000,0.093832,0.013826,0.047118,0.753270,-0.250793,9.874073
8.440000,0.093257,0.016103,0.046534,0.728582,-0.229690,9.815328
8.445000,0.094393,0.009695,0.043678,0.657190,-0.266214,9.846315
8.450000,0.090225,0.013068,0.050307,0.750843,-0.246330,9.831233
8.455000,0.093733,0.013486,0.043796,0.771307,-0.219147,9.820962
8.460000,0.093993,0.015831,0.045745,0.779747,-0.169793,9.874855
8.465000,0.093925,0.014382,0.043198,0.800200,-0.217950,9.842421
8.470000,0.094531,0.017949,0.046577,0.772370,-0.182402,9.851258
8.475000,0.093188,0.019050,0.047617,0.770390,-0.238920,9.851371
8.480000,0.093914,0.010930,0.047803,0.748730,-0.183578,9.834684
8.485000,0.086802,0.013073,0.046779,0.709588,-0.169097,9.834526
8.490000,0.090598,0.016422,0.048605,0.750984,-0.156739,9.807461
8.495000,0.097594,0.016469,0.049367,0.774536,-0.181759,9.901789
8.500000,0.090921,0.017826,0.051856,0.704988,-0.171012,9.903900
8.505000,0.099075,0.011679,0.044340,0.749512,-0.182465,9.821249
8.510000,0.095710,0.020738,0.044015,0.768341,-0.132474,9.886817
8.515000,0.091988,0.014331,0.044387,0.798078,-0.160481,9.828496
8.520000,0.089696,0.018417,0.046618,0.719216,-0.135161,9.831723
8.525000,0.091825,0.016068,0.040441,0.724309,-0.187969,9.857673
8.530000,0.096997,0.021633,0.048620,0.783374,-0.148818,9.880891
8.535000,0.097363,0.010942,0.043573,0.744517,-0.053665,9.865232
8.540000,0.086772,0.014738,0.049125,0.764823,-0.113011,9.872385
8.545000,0.096818,0.013539,0.044275,0.702149,-0.130720,9.782765
8.550000,0.095997,0.018225,0.048826,0.828475,-0.113395,9.825477
8.555000,0.094413,0.021043,0.047264,0.748525,-0.182230,9.878480
8.560000,0.091419,0.012864,0.045980,0.771916,-0.133118,9.832688
8.565000,0.090262,0.019532,0.040802,0.703301,-0.133614,9.863160
8.570000,0.098053,0.015681,0.042167,0.727830,-0.093078,9.877177
8.575000,0.094814,0.013627,0.041248,0.711546,-0.099441,9.867217
8.580000,0.098173,0.017120,0.046115,0.768409,-0.130104,9.835569
8.585000,0.095829,0.018156,0.036159,0.693341,-0.094741,9.848895
8.590000,0.091421,0.021238,0.043920,0.777808,-0.096780,9.810157
8.595000,0.092922,0.019486,0.041004,0.822510,-0.133350,9.861682
8.600000,0.100225,0.019736,0.042864,0.669953,-0.076003,9.895976
8.605000,0.090607,0.020509,0.049241,0.758768,-0.037860,9.853232
8.610000,0.096236,0.015808,0.046015,0.727393,-0.108128,9.858262
8.615000,0.087521,0.017971,0.042534,0.726753,-0.083578,9.880691
8.620000,0.094691,0.019079,0.043412,0.748551,-0.020535,9.853286
8.625000,0.092263,0.017804,0.045759,0.679144,-0.048868,9.851634
8.630000,0.094046,0.023405,0.044148,0.713805,-0.050442,9.846299
8.635000,0.089838,0.025477,0.047174,0.727288,-0.060046,9.819292
8.640000,0.094596,0.017016,0.043134,0.762210,-0.042184,9.852537
8.645000,0.098136,0.017966,0.044785,0.715982,0.026065,9.803878
8.650000,0.094796,0.019350,0.039603,0.735413,0.021799,9.886863
8.655000,0.098047,0.019893,0.039992,0.738280,-0.055271,9.851190
8.660000,0.097934,0.017916,0.042407,0.684328,-0.034954,9.817833
8.665000,0.096620,0.022485,0.035647,0.733876,-0.054647,9.890057
8.670000,0.095647,0.021926,0.045778,0.731359,-0.000752,9.881457
8.675000,0.097076,0.022023,0.049579,0.684119,0.012394,9.832098
8.680000,0.092692,0.020495,0.047701,0.686366,0.000440,9.820286
8.685000,0.090638,0.020919,0.045667,0.777741,-0.013640,9.835307
8.690000,0.092927,0.024064,0.041014,0.697688,0.012175,9.863021
8.695000,0.096909,0.020095,0.042596,0.742379,0.036829,9.831007
8.700000,0.100600,0.025467,0.044007,0.690586,0.072783,9.897115
8.705000,0.096019,0.019080,0.048543,0.690285,0.074728,9.841741
8.710000,0.094744,0.021754,0.045434,0.638529,0.050147,9.845961
8.715000,0.092741,0.019996,0.038562,0.709160,0.017925,9.887461
8.720000,0.094759,0.024485,0.042837,0.682133,0.121421,9.833557
8.725000,0.090644,0.016503,0.043190,0.738132,0.007977,9.899797
8.730000,0.100661,0.033403,0.049159,0.738571,0.073323,9.916051
8.735000,0.094728,0.022181,0.046611,0.645581,0.041421,9.853050
8.740000,0.094096,0.023872,0.049119,0.733568,0.070601,9.872721
8.745000,0.093155,0.023005,0.038330,0.741159,0.046895,9.871675
8.750000,0.096116,0.026118,0.040261,0.702216,0.106255,9.877186
8.755000,0.093040,0.024117,0.047865,0.688588,0.116667,9.814592
8.760000,0.094563,0.028772,0.043902,0.673437,0.117780,9.869659
8.765000,0.099234,0.021139,0.043757,0.678087,0.107138,9.853559
8.770000,0.097884,0.019224,0.046419,0.715175,0.090569,9.874649
8.775000,0.095441,0.024947,0.041879,0.695163,0.094609,9.832781
8.780000,0.097453,0.024877,0.041089,0.777974,0.109416,9.801554
8.785000,0.092329,0.019275,0.044221,0.681034,0.103802,9.873467
8.790000,0.097981,0.020812,0.041000,0.737117,0.112873,9.799032
8.795000,0.100571,0.022553,0.043784,0.675777,0.113960,9.860293
8.800000,0.095702,0.026896,0.046767,0.648066,0.104331,9.850283
8.805000,0.095211,0.026476,0.048988,0.667196,0.135027,9.814882
8.810000,0.095659,0.026168,0.048916,0.720479,0.146459,9.843324
8.815000,0.096406,0.023557,0.045266,0.736803,0.129260,9.797905
8.820000,0.097936,0.026189,0.040807,0.689289,0.182466,9.841602
8.825000,0.097674,0.026928,0.046245,0.680660,0.219405,9.853321
8.830000,0.097970,0.022475,0.047699,0.753885,0.173964,9.917145
8.835000,0.095567,0.023362,0.039047,0.740309,0.148595,9.917595
8.840000,0.095574,0.028685,0.046477,0.662748,0.162660,9.875752
8.845000,0.099655,0.027279,0.042577,0.658461,0.184663,9.829384
8.850000,0.090666,0.021686,0.044545,0.681669,0.157491,9.848977
8.855000,0.096481,0.028292,0.041624,0.723383,0.209481,9.838539
8.860000,0.093816,0.024343,0.042799,0.683242,0.150476,9.831169
8.865000,0.093845,0.024534,0.042302,0.676653,0.214371,9.861613
8.870000,0.092451,0.025003,0.044287,0.719890,0.195908,9.859368
8.875000,0.099296,0.022003,0.040506,0.653437,0.222954,9.882314
8.880000,0.098410,0.025035,0.038463,0.719572,0.249959,9.848643
8.885000,0.094710,0.024465,0.040827,0.687752,0.220422,9.861422
8.890000,0.097287,0.022451,0.039540,0.678159,0.231145,9.838479
8.895000,0.089208,0.024817,0.042997,0.715789,0.243894,9.868210
8.900000,0.096460,0.025567,0.040866,0.704243,0.263654,9.946335
8.905000,0.094799,0.035076,0.040673,0.684260,0.223096,9.873589
8.910000,0.098787,0.024172,0.039657,0.659973,0.261530,9.767636
8.915000,0.092175,0.026179,0.046756,0.692632,0.247482,9.868921
8.920000,0.096973,0.026436,0.038916,0.644739,0.228082,9.863631
8.925000,0.094408,0.026604,0.040824,0.651198,0.268285,9.828047
8.930000,0.097816,0.026454,0.044606,0.688522,0.251058,9.878150
8.935000,0.096469,0.030898,0.041845,0.663206,0.258136,9.896946
8.940000,0.092829,0.026728,0.049656,0.726044,0.279819,9.859433
8.945000,0.100247,0.028280,0.046136,0.667194,0.313628,9.833577
8.950000,0.092272,0.026826,0.043605,0.662001,0.318025,9.890771
8.955000,0.096068,0.026583,0.038573,0.653130,0.257843,9.848928
8.960000,0.094731,0.025384,0.045873,0.662818,0.325648,9.900302
8.965000,0.094949,0.028746,0.044070,0.647490,0.247717,9.906962
8.970000,0.103235,0.025496,0.046649,0.595776,0.340614,9.861650
8.975000,0.092665,0.023557,0.041854,0.693392,0.338996,9.855321
8.980000,0.100002,0.026142,0.040324,0.671293,0.349547,9.849285
8.985000,0.096196,0.026255,0.043002,0.610832,0.376377,9.863583
8.990000,0.098156,0.032830,0.045811,0.714562,0.325535,9.852390
8.995000,0.097968,0.022909,0.039327,0.652868,0.302964,9.880450
9.000000,0.092503,0.028929,0.039790,0.646680,0.375407,9.844087
9.005000,0.099593,0.026130,0.043081,0.634389,0.287480,9.826797
9.010000,0.095047,0.027980,0.042503,0.678817,0.328360,9.851995
9.015000,0.095248,0.030591,0.043024,0.685998,0.314968,9.878158
9.020000,0.095658,0.029909,0.039632,0.669273,0.352245,9.830339
9.025000,0.092999,0.032703,0.042498,0.667751,0.291576,9.829661
9.030000,0.098068,0.026095,0.039659,0.656845,0.342795,9.830251
9.035000,0.093826,0.029002,0.039737,0.686475,0.328971,9.864352
9.040000,0.098203,0.023228,0.041160,0.625930,0.351076,9.888667
9.045000,0.097389,0.026152,0.038616,0.665686,0.367842,9.864856
9.050000,0.099477,0.028894,0.040380,0.611414,0.398096,9.875485
9.055000,0.088097,0.028508,0.042707,0.569153,0.402153,9.812501
9.060000,0.097892,0.033553,0.037729,0.616534,0.390365,9.834395
9.065000,0.091718,0.029036,0.038155,0.652429,0.363204,9.882391
9.070000,0.095838,0.024296,0.039237,0.661818,0.403770,9.887855
9.075000,0.098075,0.027082,0.045503,0.614401,0.396153,9.868846
9.080000,0.100428,0.027828,0.039490,0.660233,0.411834,9.852598
9.085000,0.098560,0.026132,0.039702,0.642685,0.454733,9.848021
9.090000,0.092677,0.028934,0.041094,0.594447,0.445040,9.783169
9.095000,0.098160,0.027097,0.035576,0.665689,0.423942,9.818823
9.100000,0.095528,0.027625,0.038077,0.661765,0.420280,9.863106
9.105000,0.096943,0.028819,0.040520,0.592292,0.427115,9.837641
9.110000,0.098724,0.031927,0.043596,0.618371,0.443818,9.853264
9.115000,0.099335,0.028460,0.043499,0.697743,0.403449,9.867890
9.120000,0.098338,0.027331,0.040988,0.605967,0.465771,9.847020
9.125000,0.094590,0.030678,0.044006,0.642564,0.475180,9.879615
9.130000,0.091699,0.031055,0.038921,0.622748,0.478443,9.888512
9.135000,0.086656,0.032002,0.037555,0.633802,0.504083,9.805865
9.140000,0.094250,0.031605,0.039503,0.588125,0.481075,9.816895
9.145000,0.096463,0.031009,0.038153,0.637025,0.472279,9.867910
9.150000,0.094639,0.029381,0.041995,0.674323,0.497696,9.894986
9.155000,0.094606,0.032952,0.043506,0.633064,0.527547,9.857004
9.160000,0.098027,0.031236,0.037764,0.622532,0.478510,9.790605
9.165000,0.099094,0.029606,0.039980,0.606562,0.461133,9.830477
9.170000,0.099304,0.028271,0.041126,0.602888,0.518062,9.863651
9.175000,0.101023,0.030264,0.043274,0.580238,0.524139,9.870716
9.180000,0.100631,0.029379,0.038085,0.580937,0.478179,9.830010
